state_time,loop_time,accel_x,accel_y,accel_z,gyro_x,gyro_y,gyro_z,motor_angle,motor_velocity,motor_current,ankle_angle,ankle_velocity,ankle_torque_from_current,did_heel_strike,gait_phase,did_toe_off,commanded_current,commanded_position,commanded_torque,slack,temperature,heel_fsr,toe_fsr,did_slip,gen_var1,gen_var2,gen_var3
700.708,0.004996059999939462,0.005859375,1.010009765625,-0.02099609375,-2.015267175572519,-0.0916030534351145,1.8625954198473282,-37537,-1,-59,0.52685546875,17.726726834443287,0.12904126508174213,False,,False,,-27561,,24,34,1,1,False,,,
700.713,0.009997951999821453,0.0078125,1.00537109375,-0.023681640625,-1.9541984732824427,-0.21374045801526717,1.7099236641221374,-37538,-1,-57,0.52685546875,16.06658779021857,0.12466698490947968,False,,False,,-27561,,23,34,1,0,False,,,
700.718,0.014999048999925435,0.005859375,1.00732421875,-0.0224609375,-1.984732824427481,-0.183206106870229,1.648854961832061,-37537,2,-58,0.52685546875,13.681651038330289,0.1268541249956109,False,,False,,-27561,,24,34,1,0,False,,,
700.7230000000001,0.020001682999918557,-0.009765625,1.002685546875,-0.023193359375,-2.8091603053435112,0.6717557251908397,4.67175572519084,-37345,1030,6133,0.548828125,11.141230764612875,-13.412969451562187,False,,False,,-27578,,233,34,1,0,False,,,
700.7280000000001,0.02500294599985864,-0.150634765625,0.804931640625,-0.059326171875,0.916030534351145,3.5725190839694654,-15.267175572519083,-36571,3583,8171,0.5048828125,8.616914673623757,-17.87213208936628,False,,False,,-27544,,973,34,1,0,False,,,
700.7330000000001,0.030004856999994445,0.60498046875,1.012451171875,0.0400390625,0.9770992366412213,6.931297709923664,-12.122137404580153,-35643,4087,1672,0.2412109375,4.981859412760711,-3.659536963266281,False,,False,,-27344,,1701,34,1,0,False,,,
700.738,0.035006379999913406,0.747802734375,1.02392578125,0.115966796875,-4.519083969465648,0.6717557251908397,5.190839694656488,-34726,4021,191,0.197265625,-0.2208942569830112,-0.41809046768486186,False,,False,,-27310,,2584,35,1,0,False,,,
700.743,0.040008901999954105,0.230712890625,0.9658203125,-0.013671875,-2.5038167938931295,7.7251908396946565,0.3969465648854962,-33824,3969,17,0.28515625,-4.599026855677844,-0.037204154523754404,False,,False,,-27377,,3553,35,1,0,False,,,
700.748,0.04501047999997354,-0.10888671875,0.859130859375,-0.0546875,-1.1908396946564885,3.3893129770992365,-6.931297709923664,-32928,3945,-53,0.197265625,-6.860979226187558,0.11601463239422867,False,,False,,-27310,,4382,34,1,0,False,,,
700.753,0.05001316999982919,-0.16650390625,1.09375,-0.051025390625,-3.3587786259541983,0.0916030534351145,-1.5877862595419847,-32058,3817,-129,0.197265625,-8.1135475526237,0.2823752373368962,False,,False,,-27310,,5252,34,1,0,False,,,
700.758,0.05501493299993854,-0.19580078125,1.0107421875,-0.108642578125,-1.618320610687023,0.5190839694656488,-2.4122137404580153,-31247,3545,-213,0.1533203125,-8.794636674680978,0.46629764326058587,False,,False,,-27277,,6030,34,1,0,False,,,
700.763,0.06001752899987878,-0.132568359375,0.995849609375,-0.098388671875,-1.4961832061068703,-2.2900763358778624,0.916030534351145,-30498,3264,-251,0.1533203125,-8.877978527607262,0.5494868941709251,False,,False,,-27277,,6779,34,1,0,False,,,
700.768,0.06501923699988765,-0.002197265625,0.9853515625,-0.05078125,-2.564885496183206,-2.045801526717557,2.4122137404580153,-29800,3054,-264,0.1533203125,-8.394745155355844,0.5779463747455149,False,,False,,-27277,,7477,34,1,0,False,,,
700.773,0.07002181499979088,0.045166015625,1.0322265625,-0.017822265625,-2.717557251908397,-1.8015267175572518,1.83206106870229,-29145,2865,-269,0.1533203125,-7.410443745728044,0.5888923288126647,False,,False,,-27277,,8132,34,1,0,False,,,
700.778,0.07502355999986321,0.1025390625,0.989990234375,-0.0078125,-2.595419847328244,-0.9770992366412213,1.099236641221374,-28530,2674,-260,0.1533203125,-6.1838539197971105,0.569189611491795,False,,False,,-27277,,8747,34,1,0,False,,,
700.783,0.0800259529999039,0.085205078125,1.015625,0.000244140625,-2.5038167938931295,-0.0916030534351145,0.366412213740458,-27962,2478,-250,0.17529296875,-4.812151275325503,0.5472683167278957,False,,False,,-27294,,9332,34,1,0,False,,,
700.788,0.08502803099986522,0.022705078125,1.00390625,-0.001708984375,-2.198473282442748,0.549618320610687,-0.732824427480916,-27443,2264,-250,0.1533203125,-3.4575739241082406,0.5472977033574952,False,,False,,-27277,,9834,34,1,0,False,3,,
700.793,0.09003055299990592,-0.015625,1.00634765625,-0.0126953125,-2.259541984732824,0.5801526717557252,-0.916030534351145,-26971,2067,-255,0.1533203125,-2.39931174973169,0.5582436574246451,False,,False,,-27277,,10306,34,1,0,False,3,,
700.798,0.09503211299988834,-0.044189453125,1.000244140625,-0.025634765625,-1.83206106870229,0.6717557251908397,-0.6717557251908397,-26542,1877,-261,0.1533203125,-1.6161056342148536,0.571378802305225,False,,False,,-27277,,10735,34,1,0,False,3,,
700.803,0.10003409899991311,-0.00048828125,1.038818359375,-0.013916015625,-1.984732824427481,0.3969465648854962,-8.366412213740457,-26390,377,-4899,0.0654296875,-1.3369957367514897,10.727129892606447,False,,False,,-27210,,10820,34,1,0,False,3,,
700.808,0.10503515799996421,-0.0810546875,1.19140625,-0.05322265625,-3.2061068702290076,-2.6259541984732824,9.190839694656487,-26540,-673,-3101,-0.00048828125,-2.021409431519369,6.791197895273308,False,,False,,-27160,,10620,34,1,0,False,3,,
700.813,0.11003764399993088,-0.35205078125,0.909423828125,-0.103759765625,-1.3435114503816794,1.648854961832061,-1.3740458015267174,-26712,-760,-441,0.08740234375,-2.827514254516899,0.965587619150223,False,,False,,-27227,,10515,34,1,0,False,3,,
700.818,0.11503898099999788,-0.262451171875,1.0078125,-0.02587890625,-3.6030534351145036,-2.6564885496183206,0.183206106870229,-26882,-743,-260,0.0654296875,-2.7643389026273386,0.5693108332471273,False,,False,,-27210,,10328,34,1,0,False,3,,
700.823,0.12004068900000675,-0.081787109375,0.97900390625,-0.064453125,-4.305343511450381,-4.519083969465648,4.519083969465648,-27044,-709,-193,0.0654296875,-2.325238423471939,0.42260381083344445,False,,False,,-27210,,10166,34,1,0,False,3,,
700.828,0.12504276699996808,0.10595703125,0.988037109375,-0.032470703125,-2.6259541984732824,-2.564885496183206,3.847328244274809,-27198,-677,-163,0.0654296875,-1.9450831802508424,0.3569140993049298,False,,False,,-27210,,10012,34,1,0,False,3,,
700.833,0.13004464099981305,0.1103515625,1.0166015625,0.010986328125,-2.198473282442748,-0.42748091603053434,2.045801526717557,-27340,-610,-173,0.0654296875,-1.5450147640632401,0.3788106698144347,False,,False,,-27210,,9870,34,1,0,False,3,,
700.838,0.13504658900001232,0.10205078125,0.98388671875,0.02099609375,-3.1755725190839694,0.4580152671755725,1.2519083969465647,-27473,-582,-97,0.08740234375,-1.076056907200745,0.21238548539131885,False,,False,,-27227,,9754,34,1,0,False,3,,
700.843,0.14004811199993128,0.058349609375,0.999755859375,0.013671875,-2.6564885496183206,1.2213740458015268,0.549618320610687,-27587,-487,30,0.08740234375,-0.5123327323226162,-0.06568623259525326,False,,False,,-27227,,9640,34,1,0,False,3,,
700.8480000000001,0.14505020899991905,-0.04443359375,0.998046875,-0.01123046875,-1.984732824427481,0.732824427480916,0.4580152671755725,-27665,-322,311,0.08740234375,-0.021372925932132136,-0.6809472779041255,False,,False,,-27227,,9562,34,1,0,False,3,,
700.8530000000001,0.1500525269998434,-0.083251953125,1.01171875,-0.0146484375,-2.0763358778625953,-0.33587786259541985,1.129770992366412,-27683,-53,547,0.0654296875,0.20696488458235507,-1.1977424068699178,False,,False,,-27210,,9527,34,1,0,False,3,,
700.8580000000001,0.15505336499995792,-0.0537109375,0.99267578125,-0.024658203125,-1.984732824427481,-0.030534351145038167,1.3740458015267174,-27654,150,523,0.08740234375,0.24852650723124853,-1.1451299882439152,False,,False,,-27227,,9573,34,1,0,False,3,,
700.863,0.1600557949998347,-0.01611328125,1.01513671875,-0.022705078125,-2.1374045801526718,-0.2748091603053435,2.381679389312977,-27600,242,413,0.0654296875,0.25521712305279737,-0.9043283620425522,False,,False,,-27210,,9610,34,1,1,False,3,,
700.868,0.16505729899995458,-0.00634765625,1.0029296875,-0.0302734375,-2.1068702290076335,-0.33587786259541985,2.748091603053435,-27530,310,352,0.08740234375,0.23900568467843758,-0.7707184624509716,False,,False,,-27227,,9697,34,1,0,False,3,,
700.873,0.1700588029998471,-0.00537109375,1.00537109375,-0.02490234375,-2.0763358778625953,-0.061068702290076333,2.3206106870229006,-27454,340,292,0.08740234375,0.29766527717081026,-0.639345997260465,False,,False,,-27227,,9773,34,1,0,False,3,,
700.878,0.1750608249999459,0.009033203125,1.0029296875,-0.017822265625,-2.229007633587786,-0.030534351145038167,2.595419847328244,-27378,339,244,0.08740234375,0.3996311923060292,-0.5342480251080599,False,,False,,-27227,,9849,34,1,0,False,3,,
700.883,0.18006266299994422,0.01513671875,1.006103515625,-0.015869140625,-1.9541984732824427,0.366412213740458,2.4122137404580153,-27310,297,195,0.109375,0.521180409080855,-0.426937821288414,False,,False,,-27244,,9934,34,1,0,False,3,,
700.888,0.18506413000000066,0.00439453125,1.003173828125,-0.007080078125,-1.8931297709923662,0.48854961832061067,2.259541984732824,-27250,257,86,0.0654296875,0.5572679594871778,-0.1883105063817421,False,,False,,-27210,,9960,34,1,1,False,3,,
700.893,0.19006563399989318,-0.001708984375,1.003173828125,-0.010498046875,-1.9236641221374045,0.3053435114503817,2.4427480916030535,-27204,193,-55,0.109375,0.4473885232774103,0.12041835985057832,False,,False,,-27244,,10040,34,1,1,False,3,,
700.898,0.1950669889999972,-0.003662109375,1.003173828125,-0.010498046875,-1.7404580152671756,0.42748091603053434,2.4427480916030535,-27179,95,-210,0.08740234375,0.429233886391707,0.45980362816677284,False,,False,,-27227,,10048,34,1,0,False,3,,
700.903,0.2000688269999955,-0.009765625,1.002685546875,-0.020263671875,-1.4045801526717556,0.030534351145038167,2.931297709923664,-27170,35,-190,0.13134765625,0.5596224930447384,0.4159685136199196,False,,False,,-27260,,10090,34,1,0,False,3,,
700.908,0.20507097899985638,-0.014404296875,1.0029296875,-0.027099609375,-1.3740458015267174,-0.030534351145038167,3.4198473282442747,-27174,-28,-229,0.08740234375,0.6865479916209322,0.5014049088104332,False,,False,,-27227,,10053,34,1,0,False,3,,
700.913,0.21007268699986525,-0.025146484375,1.00634765625,-0.0341796875,-1.7099236641221374,-0.6106870229007634,4.091603053435114,-27184,-33,-244,0.109375,0.6245421006019238,0.5342196327916565,False,,False,,-27244,,10060,34,1,0,False,3,,
700.918,0.2150746719999006,-0.017822265625,1.01416015625,-0.0341796875,-1.83206106870229,-0.7938931297709924,4.244274809160305,-27194,-44,-286,0.08740234375,0.44634592018455754,0.6262087507414145,False,,False,,-27227,,10033,34,1,0,False,3,,
700.923,0.22007734299995718,-0.0009765625,1.001953125,-0.03173828125,-1.8015267175572518,-0.33587786259541985,4.0,-27208,-64,-250,0.13134765625,0.38445999024243416,0.5473269916051573,False,,False,,-27260,,10052,34,1,0,False,3,,
700.928,0.2250786249999237,0.0078125,1.00390625,-0.0263671875,-2.1068702290076335,-0.42748091603053434,4.33587786259542,-27221,-60,-192,0.13134765625,0.5786552845060644,0.4203471295527608,False,,False,,-27260,,10039,34,1,0,False,3,,
700.933,0.23008083199988505,0.001953125,1.010498046875,-0.0205078125,-2.1068702290076335,-0.6106870229007634,4.488549618320611,-27229,-32,-148,0.13134765625,0.8332313078623537,0.32401757903025313,False,,False,,-27260,,10031,34,1,0,False,3,,
700.938,0.2350821879999785,0.008056640625,1.00537109375,-0.016845703125,-1.984732824427481,-0.12213740458015267,3.877862595419847,-27231,-6,-216,0.1533203125,1.0178246537502864,0.47286521570087586,False,,False,,-27277,,10046,34,1,0,False,3,,
700.943,0.24008456199999273,0.017333984375,1.00244140625,-0.014404296875,-2.045801526717557,-0.12213740458015267,3.969465648854962,-27236,-20,-283,0.1533203125,1.2309624567989297,0.6195410002006846,False,,False,,-27277,,10041,34,1,0,False,3,,
700.948,0.24508562199980588,0.004638671875,1.0029296875,-0.0166015625,-1.83206106870229,-0.061068702290076333,4.213740458015267,-27240,-19,-285,0.1533203125,1.3570282161167175,0.6239193818275445,False,,False,,-27277,,10037,34,1,0,False,3,,
700.953,0.2500878109999576,-0.001220703125,1.006103515625,-0.01513671875,-1.984732824427481,0.15267175572519084,4.030534351145038,-27244,-25,-319,0.197265625,1.5053798649250503,0.698276749693565,False,,False,,-27310,,10066,34,1,0,False,3,,
700.958,0.25508944499983954,-0.001953125,1.00341796875,-0.019775390625,-1.8015267175572518,0.12213740458015267,4.0,-27251,-36,-332,0.197265625,1.8326209568092011,0.726733168960074,False,,False,,-27310,,10059,34,1,0,False,3,,
700.963,0.2600918189998538,0.006591796875,1.004150390625,-0.02099609375,-1.648854961832061,-0.183206106870229,4.183206106870228,-27264,-58,-305,0.197265625,2.071790703094164,0.6676313750988631,False,,False,,-27310,,10046,34,1,0,False,3,,
700.968,0.2650935449998997,0.0087890625,1.003662109375,-0.023193359375,-1.7709923664122136,-0.030534351145038167,4.122137404580153,-27287,-109,-292,0.21923828125,2.1470054450569447,0.6391404035917178,False,,False,,-27327,,10040,34,1,0,False,3,,
700.9730000000001,0.27009603099986634,0.000732421875,1.005615234375,-0.02783203125,-1.984732824427481,-0.33587786259541985,4.396946564885496,-27313,-114,-261,0.21923828125,2.1992821097680153,0.5712864566350628,False,,False,,-27327,,10014,34,1,1,False,3,,
700.9780000000001,0.2750976279999122,0.0009765625,1.007080078125,-0.0263671875,-2.045801526717557,-0.33587786259541985,4.0,-27338,-105,-178,0.2412109375,2.232647837882138,0.38959185374485533,False,,False,,-27344,,10006,34,1,0,False,3,,
700.9830000000001,0.28009914999984176,0.010986328125,1.0078125,-0.024169921875,-1.8015267175572518,-0.3969465648854962,3.969465648854962,-27362,-106,-96,0.2412109375,2.251204623263571,0.21011695482868603,False,,False,,-27344,,9982,34,1,1,False,3,,
700.988,0.28510024699994574,0.015869140625,1.009765625,-0.020751953125,-1.984732824427481,-0.6106870229007634,4.122137404580153,-27377,-63,-13,0.28515625,2.3470299172055196,0.028450235812282784,False,,False,,-27377,,10000,34,1,0,False,3,,
700.993,0.290102731999923,0.020751953125,1.006591796875,-0.022216796875,-2.015267175572519,-0.12213740458015267,3.480916030534351,-27383,-28,8,0.28515625,2.5729704878992123,-0.01750783742294325,False,,False,,-27377,,9994,34,1,0,False,3,,
700.998,0.29510416199991596,0.02392578125,1.008056640625,-0.02294921875,-1.83206106870229,0.12213740458015267,3.1755725190839694,-27386,-14,10,0.28515625,2.687696147999949,-0.021884796778679064,False,,False,,-27377,,9991,34,1,0,False,3,,
701.003,0.30010592499979794,0.02783203125,1.00830078125,-0.02294921875,-2.015267175572519,0.061068702290076333,2.931297709923664,-27392,-34,-73,0.30712890625,2.6336206670741844,0.15975026525850738,False,,False,,-27394,,10002,34,1,1,False,3,,
701.008,0.30510744799994427,0.009765625,1.00537109375,-0.024658203125,-2.045801526717557,0.12213740458015267,2.8396946564885495,-27406,-58,-48,0.30712890625,2.563885362908353,0.10504127030696378,False,,False,,-27394,,9988,34,1,1,False,3,,
701.013,0.31011024800000087,-0.00244140625,1.00732421875,-0.0244140625,-2.1374045801526718,-0.2748091603053435,3.32824427480916,-27414,-18,45,0.30712890625,2.4014517078697906,-0.09847619091277854,False,,False,,-27394,,9980,34,1,1,False,3,,
701.018,0.315111307999814,-0.002197265625,1.0068359375,-0.028076171875,-2.0763358778625953,-0.2748091603053435,2.8091603053435112,-27416,-2,-3,0.3291015625,2.192614680819884,0.006564718602062237,False,,False,,-27411,,9995,34,1,1,False,3,,
701.023,0.32011299699979645,0.01171875,1.006591796875,-0.02880859375,-2.198473282442748,-0.24427480916030533,2.6564885496183206,-27415,1,-38,0.30712890625,1.9707933811897895,0.08315767232634633,False,,False,,-27394,,9979,34,1,1,False,3,,
701.028,0.3251144639998529,0.025146484375,1.00537109375,-0.026123046875,-2.198473282442748,-0.061068702290076333,2.381679389312977,-27413,7,-13,0.30712890625,1.5819503162170707,0.028448677374802687,False,,False,,-27394,,9981,34,1,1,False,3,,
701.033,0.3301159119998829,0.029541015625,1.00537109375,-0.023681640625,-2.198473282442748,-0.0916030534351145,2.1374045801526718,-27416,-19,-63,0.35107421875,1.2937386499909531,0.1378514898855654,False,,False,,-27427,,10011,34,1,1,False,3,,
701.038,0.3351176939997913,0.014892578125,1.001953125,-0.02587890625,-2.4427480916030535,-0.24427480916030533,2.351145038167939,-27417,4,-32,0.3291015625,1.269734082292971,0.07002366508866385,False,,False,,-27411,,9994,34,1,1,False,3,,
701.043,0.34011943899986363,0.011962890625,1.00390625,-0.025634765625,-2.4122137404580153,-0.3053435114503817,1.984732824427481,-27416,0,-9,0.3291015625,1.1523365809033512,0.01969415580618671,False,,False,,-27411,,9995,34,1,1,False,3,,
701.048,0.3451213319999624,0.0244140625,1.00732421875,-0.025146484375,-2.4427480916030535,-0.183206106870229,1.5267175572519083,-27417,-14,-76,0.3291015625,0.8962153480166423,0.16630620458557666,False,,False,,-27411,,9994,34,1,0,False,3,,
701.053,0.3501235759999872,0.012451171875,1.0078125,-0.0302734375,-2.4427480916030535,-0.0916030534351145,1.5877862595419847,-27421,-11,-78,0.3291015625,0.659955519541652,0.17068268365361816,False,,False,,-27411,,9990,34,1,0,False,3,,
701.058,0.3551250989999062,0.010986328125,1.011474609375,-0.025634765625,-2.4732824427480917,-0.21374045801526717,1.2213740458015268,-27419,15,-25,0.3291015625,0.4554134033477051,0.05470598835051864,False,,False,,-27411,,9992,34,1,0,False,3,,
701.063,0.3601268989998516,0.02490234375,0.999755859375,-0.02734375,-2.687022900763359,-0.0916030534351145,1.0687022900763359,-27417,12,-17,0.35107421875,0.3759020446572548,0.03719802108023193,False,,False,,-27427,,10010,34,1,0,False,3,,
701.068,0.36512856999979704,0.017333984375,1.004638671875,-0.029541015625,-2.717557251908397,-0.12213740458015267,0.8244274809160305,-27418,4,-1,0.35107421875,0.4712237549057044,0.0021881188870724664,False,,False,,-27427,,10009,34,1,1,False,3,,
701.073,0.37013031499986937,0.014404296875,1.008056640625,-0.02734375,-2.748091603053435,-0.3969465648854962,0.7938931297709924,-27419,-4,1,0.35107421875,0.5827604222317593,-0.0021881188870724664,False,,False,,-27427,,10008,34,1,1,False,3,,
701.078,0.3751321889999417,0.01708984375,1.005126953125,-0.02734375,-2.931297709923664,-0.33587786259541985,0.6106870229007634,-27420,-7,-60,0.35107421875,0.6074794729870012,0.131287133224348,False,,False,,-27427,,10007,34,1,0,False,3,,
701.083,0.38013454499991894,0.012451171875,1.005615234375,-0.0283203125,-3.0534351145038165,-0.3969465648854962,0.6717557251908397,-27422,-7,-90,0.35107421875,0.5745321448931893,0.196930699836522,False,,False,,-27427,,10005,34,1,0,False,3,,
701.088,0.385135567999896,0.01806640625,1.001953125,-0.026611328125,-3.0229007633587783,-0.3969465648854962,0.3969465648854962,-27422,5,-64,0.35107421875,0.5072471689682146,0.14003960877263785,False,,False,,-27427,,10005,34,1,1,False,3,,
701.093,0.3901374600000054,0.01806640625,1.006591796875,-0.021728515625,-3.114503816793893,-0.3053435114503817,0.2748091603053435,-27421,0,-90,0.35107421875,0.4233449248673666,0.196930699836522,False,,False,,-27427,,10006,34,1,1,False,3,,
701.0980000000001,0.3951391129999138,0.0107421875,1.007080078125,-0.025146484375,-3.114503816793893,-0.183206106870229,0.42748091603053434,-27424,-12,-119,0.3291015625,0.24726835044817344,0.26040050454846875,False,,False,,-27411,,9987,34,1,1,False,3,,
701.1030000000001,0.400141486999928,0.009033203125,1.0068359375,-0.02392578125,-3.0839694656488548,-0.24427480916030533,0.15267175572519084,-27425,0,-89,0.35107421875,0.026220468357309387,0.19474258094944955,False,,False,,-27427,,10002,34,1,1,False,3,,
701.1080000000001,0.405143138999847,0.014404296875,1.0048828125,-0.023681640625,-3.145038167938931,-0.3969465648854962,0.030534351145038167,-27424,-3,-95,0.35107421875,-0.02939833423198468,0.20787129427188433,False,,False,,-27427,,10003,34,1,1,False,3,,
701.113,0.4101448649998929,-0.00048828125,1.0048828125,-0.022705078125,-3.145038167938931,-0.48854961832061067,0.2748091603053435,-27422,5,-57,0.3291015625,-0.06270786884410914,0.12472965343918249,False,,False,,-27411,,9989,34,1,0,False,3,,
701.118,0.4151467209999282,0.012939453125,1.011962890625,-0.022216796875,-3.145038167938931,-0.549618320610687,-0.3053435114503817,-27423,-3,-77,0.3291015625,-0.25554740503894224,0.1684944441195974,False,,False,,-27411,,9988,34,1,1,False,3,,
701.123,0.42014935499992134,0.015869140625,0.996826171875,-0.0263671875,-3.32824427480916,-0.5190839694656488,0.33587786259541985,-27425,-7,-110,0.3291015625,-0.44695330793545546,0.24070634874228203,False,,False,,-27411,,9986,34,1,1,False,3,,
701.128,0.4251514329998827,0.01025390625,0.99853515625,-0.022216796875,-3.145038167938931,-0.42748091603053434,0.061068702290076333,-27423,12,-44,0.3291015625,-0.5338064714578259,0.0962825394969128,False,,False,,-27411,,9988,34,1,0,False,3,,
701.133,0.43015360399999736,0.013916015625,1.006103515625,-0.02001953125,-3.4198473282442747,-0.3969465648854962,0.061068702290076333,-27421,0,-20,0.3291015625,-0.5466273594407465,0.04376479068041491,False,,False,,-27411,,9990,34,1,0,False,3,,
701.138,0.4351555149999058,0.009521484375,1.00732421875,-0.02001953125,-3.2671755725190836,-0.24427480916030533,0.030534351145038167,-27422,-2,4,0.3291015625,-0.5109375873196643,-0.008752958136082982,False,,False,,-27411,,9989,34,1,0,False,3,,
701.143,0.44015822299979845,0.002685546875,1.0009765625,-0.020263671875,-3.0839694656488548,-0.2748091603053435,0.0916030534351145,-27422,-9,7,0.3291015625,-0.44700251169033667,-0.015317676738145217,False,,False,,-27411,,9989,34,1,0,False,3,,
701.148,0.44516085599980215,0.00634765625,1.004638671875,-0.014892578125,-3.2061068702290076,-0.33587786259541985,0.061068702290076333,-27422,-3,2,0.3291015625,-0.3700883931980502,-0.004376479068041491,False,,False,,-27411,,9989,34,1,1,False,3,,
701.153,0.4501613049999378,0.00390625,1.00537109375,-0.015869140625,-2.9923664122137406,-0.3053435114503817,0.0916030534351145,-27421,1,1,0.30712890625,-0.37928590061518913,-0.002188359798061745,False,,False,,-27394,,9973,34,1,1,False,3,,
701.158,0.4551625309998144,0.003662109375,1.005615234375,-0.015625,-3.0839694656488548,-0.2748091603053435,0.0,-27420,8,18,0.30712890625,-0.5312293417162042,-0.039390476365111414,False,,False,,-27394,,9974,34,1,1,False,3,,
701.163,0.4601649239998551,0.002685546875,1.0029296875,-0.014892578125,-2.900763358778626,-0.24427480916030533,0.0916030534351145,-27420,0,47,0.30712890625,-0.6742599866687922,-0.10285291050890202,False,,False,,-27394,,9974,34,1,1,False,3,,
701.168,0.4651663719998851,-0.000244140625,1.000244140625,-0.01708984375,-2.8702290076335877,-0.2748091603053435,0.3053435114503817,-27417,16,102,0.28515625,-0.800084249185322,-0.22322492714252642,False,,False,,-27377,,9960,34,1,0,False,3,,
701.173,0.4701686729999892,0.00244140625,1.011962890625,-0.014892578125,-2.778625954198473,-0.4580152671755725,0.183206106870229,-27415,9,136,0.3291015625,-0.8165082956410317,-0.2976005766268214,False,,False,,-27411,,9996,34,1,0,False,3,,
701.178,0.47517063999998754,0.002685546875,0.997802734375,-0.020751953125,-2.778625954198473,-0.366412213740458,0.48854961832061067,-27412,19,175,0.30712890625,-0.5849349895918896,-0.3829629646608054,False,,False,,-27394,,9982,34,1,1,False,3,,
701.183,0.48017253199986953,0.000732421875,1.010009765625,-0.01708984375,-2.778625954198473,-0.3969465648854962,0.24427480916030533,-27409,9,205,0.30712890625,-0.3894252406751094,-0.44861375860265773,False,,False,,-27394,,9985,34,1,0,False,3,,
701.188,0.48517392499979906,0.009521484375,1.014404296875,-0.021484375,-2.748091603053435,-0.15267175572519084,0.366412213740458,-27409,-7,147,0.30712890625,-0.32100786220562827,-0.3216888903150765,False,,False,,-27394,,9985,34,1,0,False,3,,
701.193,0.49017650299992965,0.00048828125,0.9970703125,-0.02880859375,-2.9923664122137406,-0.3053435114503817,0.8244274809160305,-27411,0,161,0.3291015625,-0.16308362073453342,-0.35230656497734003,False,,False,,-27411,,10000,34,1,0,False,3,,
701.198,0.4951776739999332,-0.0048828125,1.020263671875,-0.02294921875,-2.687022900763359,-0.183206106870229,0.366412213740458,-27407,5,204,0.30712890625,0.03955938389769491,-0.44642539880459603,False,,False,,-27394,,9987,34,1,0,False,3,,
701.203,0.5001795299999685,0.014892578125,0.9931640625,-0.025146484375,-2.9923664122137406,-0.366412213740458,0.7633587786259541,-27406,1,194,0.30712890625,0.0780898667447505,-0.4245418008239786,False,,False,,-27394,,9988,34,1,0,False,3,,
701.208,0.505181126999787,0.00732421875,1.010009765625,-0.022705078125,-3.0839694656488548,-0.21374045801526717,0.8549618320610687,-27409,-16,137,0.30712890625,0.008271244240848297,-0.2998052923344591,False,,False,,-27394,,9985,34,1,0,False,3,,
701.213,0.5101828339998065,-0.00244140625,0.99658203125,-0.02783203125,-2.8702290076335877,-0.3969465648854962,0.8244274809160305,-27409,5,167,0.28515625,-0.12542847195130952,-0.3654761062039404,False,,False,,-27377,,9968,34,1,0,False,3,,
701.218,0.5151838570000109,-0.00439453125,1.022705078125,-0.013916015625,-3.0229007633587783,-0.24427480916030533,0.3053435114503817,-27405,8,191,0.30712890625,-0.28935786472875574,-0.41797672142979336,False,,False,,-27394,,9989,34,1,0,False,3,,
701.2230000000001,0.5201862679998612,0.011962890625,0.984619140625,-0.023193359375,-2.9923664122137406,-0.2748091603053435,0.916030534351145,-27405,-3,192,0.30712890625,-0.2829921362373241,-0.4201650812278551,False,,False,,-27394,,9989,34,1,0,False,3,,
701.2280000000001,0.5251879389998066,-0.000732421875,1.00146484375,-0.024169921875,-2.9923664122137406,-0.183206106870229,0.7938931297709924,-27404,6,251,0.30712890625,-0.16791875080590218,-0.5492783093134981,False,,False,,-27394,,9990,34,1,0,False,3,,
701.2330000000001,0.5301895719999266,0.001220703125,1.00927734375,-0.01904296875,-2.9618320610687023,-0.48854961832061067,0.6717557251908397,-27402,13,265,0.30712890625,-0.0806267634398865,-0.5799153464863626,False,,False,,-27394,,9992,34,1,0,False,3,,
701.238,0.535190909999983,0.012939453125,1.00439453125,-0.01611328125,-3.0534351145038165,-0.2748091603053435,0.8244274809160305,-27402,0,227,0.30712890625,-0.01816488602490131,-0.49675767416001615,False,,False,,-27394,,9992,34,1,0,False,3,,
701.243,0.5401932659999602,-0.000244140625,1.007568359375,-0.020751953125,-2.778625954198473,-0.24427480916030533,0.8244274809160305,-27402,4,258,0.30712890625,0.02335438331104371,-0.5645968278999303,False,,False,,-27394,,9992,34,1,0,False,3,,
701.248,0.5451952139999321,0.00341796875,0.998779296875,-0.015869140625,-2.8091603053435112,-0.183206106870229,0.8244274809160305,-27401,0,262,0.30712890625,0.048106692088428646,-0.5733502670921773,False,,False,,-27394,,9993,34,1,1,False,3,,
701.253,0.5501971809999304,0.001708984375,1.010986328125,-0.01025390625,-2.8702290076335877,-0.2748091603053435,1.0381679389312977,-27400,1,262,0.28515625,-0.02813993131708766,-0.5733816756013915,False,,False,,-27377,,9977,34,1,0,False,3,,
701.258,0.5551992779999182,0.001220703125,1.00439453125,-0.01513671875,-2.717557251908397,-0.183206106870229,0.9770992366412213,-27402,0,266,0.30712890625,-0.16303721997672027,-0.5821037062844243,False,,False,,-27394,,9992,34,1,0,False,3,,
701.263,0.5602009849999376,0.00390625,1.0048828125,-0.01611328125,-2.6564885496183206,-0.24427480916030533,1.0381679389312977,-27401,5,266,0.30712890625,-0.14819948160372953,-0.5821037062844243,False,,False,,-27394,,9993,34,1,0,False,3,,
701.268,0.5652026559998831,0.006103515625,1.004638671875,-0.017578125,-2.564885496183206,-0.48854961832061067,1.0381679389312977,-27400,5,292,0.30712890625,-0.038520920237838596,-0.6390010610340295,False,,False,,-27394,,9994,34,1,0,False,3,,
701.273,0.5702044189999924,0.0087890625,1.00830078125,-0.014404296875,-2.8091603053435112,-0.12213740458015267,0.9770992366412213,-27400,-2,285,0.30712890625,0.03491611267814171,-0.6236825424475975,False,,False,,-27394,,9994,34,1,1,False,3,,
701.278,0.5752060159998109,0.013671875,1.001708984375,-0.0205078125,-2.717557251908397,-0.15267175572519084,0.9770992366412213,-27400,-4,266,0.30712890625,0.07921013446920432,-0.5821037062844243,False,,False,,-27394,,9994,34,1,0,False,3,,
701.283,0.5802078719998462,0.005859375,1.01025390625,-0.0185546875,-2.6259541984732824,-0.12213740458015267,0.8549618320610687,-27400,-2,269,0.3291015625,0.1895119267010965,-0.5886364346515804,False,,False,,-27411,,10011,34,1,1,False,3,,
701.288,0.5852088389999608,0.0029296875,1.0078125,-0.017822265625,-2.717557251908397,-0.12213740458015267,0.732824427480916,-27399,2,267,0.28515625,0.24503000158866187,-0.584324073990731,False,,False,,-27377,,9978,34,1,0,False,3,,
701.293,0.5902111759999116,0.004638671875,1.008056640625,-0.022705078125,-2.6259541984732824,-0.366412213740458,1.0076335877862594,-27399,-3,270,0.28515625,-0.003818436808161796,-0.5908895130243347,False,,False,,-27377,,9978,34,1,0,False,3,,
701.298,0.5952124389998517,0.00634765625,1.00634765625,-0.020263671875,-2.6564885496183206,-0.21374045801526717,0.7633587786259541,-27401,-8,231,0.28515625,-0.3396249724223396,-0.5055388055874863,False,,False,,-27377,,9976,34,1,0,False,3,,
701.303,0.6002148509999188,0.004638671875,1.000732421875,-0.020751953125,-2.8396946564885495,-0.33587786259541985,1.0076335877862594,-27397,24,296,0.30712890625,-0.43945478304752195,-0.6477545002262766,False,,False,,-27394,,9997,34,1,0,False,3,,
701.308,0.6052160579999963,0.010986328125,1.005126953125,-0.014892578125,-2.8091603053435112,-0.42748091603053434,0.9770992366412213,-27391,32,357,0.30712890625,-0.29166390625407895,-0.781244447908043,False,,False,,-27394,,10003,34,1,1,False,3,,
701.313,0.6102183589998731,0.013671875,1.002685546875,-0.019287109375,-2.595419847328244,-0.12213740458015267,0.7022900763358778,-27386,27,313,0.30712890625,-0.08519065112980206,-0.6849566167933263,False,,False,,-27394,,10008,34,1,0,False,3,,
701.318,0.6152198069999031,0.010498046875,1.012939453125,-0.020751953125,-2.8396946564885495,-0.24427480916030533,0.7022900763358778,-27379,28,258,0.30712890625,0.05407494856907652,-0.5645968278999303,False,,False,,-27394,,10015,34,1,1,False,3,,
701.323,0.6202224589999332,0.01220703125,0.997314453125,-0.024169921875,-2.717557251908397,-0.183206106870229,0.4580152671755725,-27375,19,196,0.30712890625,0.13904912729454644,-0.42891852042010203,False,,False,,-27394,,10019,34,1,0,False,3,,
701.328,0.6252235929998733,0.005615234375,1.0,-0.022705078125,-2.748091603053435,-0.366412213740458,0.6412213740458015,-27372,12,167,0.28515625,0.09412017211876074,-0.3654761062039404,False,,False,,-27377,,10005,34,1,1,False,3,,
701.333,0.6302263559998664,0.009765625,1.015625,-0.021484375,-2.900763358778626,-0.33587786259541985,0.549618320610687,-27368,10,124,0.30712890625,-0.030513059258239356,-0.2713566149596564,False,,False,,-27394,,10026,34,1,1,False,3,,
701.338,0.6352273789998435,0.0087890625,1.00537109375,-0.023193359375,-2.8396946564885495,-0.24427480916030533,0.48854961832061067,-27369,3,97,0.30712890625,-0.019738576623519438,-0.2122709004119893,False,,False,,-27394,,10025,34,1,1,False,3,,
701.343,0.6402296049998313,0.00830078125,1.00732421875,-0.023193359375,-2.9923664122137406,-0.3969465648854962,0.5190839694656488,-27369,0,125,0.30712890625,0.07701430016340244,-0.27354497475771816,False,,False,,-27394,,10025,34,1,1,False,3,,
701.3480000000001,0.6452305529999194,0.0107421875,1.011474609375,-0.018798828125,-2.9923664122137406,-0.3053435114503817,0.21374045801526717,-27367,2,125,0.28515625,0.044623103551600984,-0.2735599597334883,False,,False,,-27377,,10010,34,1,1,False,3,,
701.3530000000001,0.65023281699996,0.01611328125,0.99658203125,-0.023193359375,-2.9923664122137406,-0.42748091603053434,0.3969465648854962,-27367,-4,51,0.28515625,-0.15624972377019597,-0.11161246357126321,False,,False,,-27377,,10010,34,1,1,False,3,,
701.3580000000001,0.6552345059999425,0.00390625,1.01416015625,-0.01806640625,-2.931297709923664,-0.42748091603053434,0.5190839694656488,-27369,-3,30,0.28515625,-0.3607847168150399,-0.06565439033603719,False,,False,,-27377,,10008,34,1,0,False,3,,
701.363,0.6602365469998404,0.003173828125,1.001953125,-0.020751953125,-2.931297709923664,-0.366412213740458,0.24427480916030533,-27369,7,48,0.28515625,-0.46298046375983604,-0.10504702453765952,False,,False,,-27377,,10008,34,1,1,False,3,,
701.368,0.6652381619999232,0.00537109375,1.0068359375,-0.0166015625,-2.9923664122137406,-0.3053435114503817,0.183206106870229,-27369,5,58,0.28515625,-0.49133103963471525,-0.12693182131633857,False,,False,,-27377,,10008,34,1,0,False,3,,
701.373,0.670240498999874,0.009033203125,1.007080078125,-0.019287109375,-2.8396946564885495,-0.366412213740458,0.15267175572519084,-27368,-4,70,0.28515625,-0.4700434015487749,-0.15319357745075343,False,,False,,-27377,,10009,34,1,0,False,3,,
701.378,0.675241928999867,0.00341796875,1.009521484375,-0.020263671875,-2.778625954198473,-0.33587786259541985,0.2748091603053435,-27368,4,75,0.28515625,-0.41863032826334673,-0.16413597584009298,False,,False,,-27377,,10009,34,1,0,False,3,,
701.383,0.6802441739998812,-0.0009765625,1.00244140625,-0.021728515625,-2.8702290076335877,-0.33587786259541985,0.24427480916030533,-27368,0,72,0.28515625,-0.35202645096035706,-0.15757053680648928,False,,False,,-27377,,10009,34,1,0,False,3,,
701.388,0.6852457709999271,0.003173828125,1.00732421875,-0.0224609375,-2.931297709923664,-0.4580152671755725,0.2748091603053435,-27368,-5,73,0.26318359375,-0.36928742577703294,-0.15976773956415194,False,,False,,-27361,,9993,34,1,1,False,3,,
701.393,0.6902480149999519,0.003173828125,1.002197265625,-0.02001953125,-2.8702290076335877,-0.3053435114503817,0.366412213740458,-27368,-3,65,0.28515625,-0.4389486186206746,-0.1422511790614139,False,,False,,-27377,,10009,34,1,1,False,3,,
701.398,0.6952499079998233,0.004638671875,1.003173828125,-0.017578125,-2.931297709923664,-0.3053435114503817,0.33587786259541985,-27370,-9,55,0.28515625,-0.36010669193003,-0.12036638228273486,False,,False,,-27377,,10007,34,1,0,False,3,,
701.403,0.7002515789999961,0.005126953125,1.006103515625,-0.017822265625,-2.8702290076335877,-0.2748091603053435,0.3053435114503817,-27368,1,85,0.28515625,-0.19235570606178465,-0.18602077261877203,False,,False,,-27377,,10009,34,1,0,False,3,,
701.408,0.7052529349998622,0.010986328125,1.00830078125,-0.015625,-2.9923664122137406,-0.2748091603053435,-0.061068702290076333,-27367,-5,65,0.28515625,-0.06931575341170984,-0.1422511790614139,False,,False,,-27377,,10010,34,1,1,False,3,,
701.413,0.7102546609999081,0.005859375,1.00439453125,-0.019287109375,-2.8702290076335877,-0.15267175572519084,0.366412213740458,-27371,-11,30,0.28515625,0.015164483923449726,-0.06565439033603719,False,,False,,-27377,,10006,34,1,1,False,3,,
701.418,0.715256497999917,-0.00048828125,1.0126953125,-0.01708984375,-2.778625954198473,-0.3053435114503817,0.030534351145038167,-27369,3,32,0.2412109375,-0.10838615657744753,-0.07003898494289533,False,,False,,-27344,,9975,34,1,0,False,3,,
701.423,0.7202583359999153,0.005859375,1.001953125,-0.01708984375,-2.8091603053435112,-0.3969465648854962,0.0916030534351145,-27370,-4,6,0.28515625,-0.355432469826477,-0.01313087806720744,False,,False,,-27377,,10007,34,1,0,False,3,,
701.428,0.7252594879998924,0.003662109375,1.0087890625,-0.01806640625,-2.717557251908397,-0.24427480916030533,0.0,-27370,2,5,0.28515625,-0.30880892674616933,-0.010942398389339532,False,,False,,-27377,,10007,34,1,1,False,3,,
701.433,0.7302614729999277,0.000732421875,1.007080078125,-0.0185546875,-2.778625954198473,-0.42748091603053434,0.42748091603053434,-27369,6,80,0.28515625,-0.07758520026621996,-0.1750783742294325,False,,False,,-27377,,10008,34,1,1,False,3,,
701.438,0.7352632549998361,0.0068359375,1.009033203125,-0.016357421875,-2.8702290076335877,-0.12213740458015267,-0.12213740458015267,-27365,14,85,0.2412109375,-0.09957077504998785,-0.18604105375456573,False,,False,,-27344,,9979,35,1,0,False,3,,
701.443,0.7402653699998609,0.01318359375,0.996337890625,-0.016845703125,-2.8702290076335877,-0.12213740458015267,0.061068702290076333,-27368,-14,25,0.2412109375,-0.45870030246199567,-0.05471795698663698,False,,False,,-27344,,9976,35,1,1,False,3,,
701.448,0.7452669669999068,-0.001708984375,1.00927734375,-0.017822265625,-2.8396946564885495,-0.3053435114503817,0.15267175572519084,-27370,-5,29,0.2412109375,-0.8286935489488995,-0.0634728301044989,False,,False,,-27344,,9974,34,1,0,False,3,,
701.453,0.750269322999884,-0.00537109375,1.0,-0.016845703125,-2.6259541984732824,-0.4580152671755725,0.6106870229007634,-27367,17,79,0.2412109375,-0.9994174647172092,-0.17290874407777285,False,,False,,-27344,,9977,34,1,0,False,3,,
701.458,0.755270770999914,-0.00537109375,1.01611328125,-0.01513671875,-2.8091603053435112,-0.21374045801526717,0.15267175572519084,-27363,20,153,0.2412109375,-1.028624845497733,-0.3348738967582183,False,,False,,-27344,,9981,34,1,1,False,3,,
701.463,0.7602729789998648,0.0048828125,0.9990234375,-0.016357421875,-2.778625954198473,-0.3969465648854962,0.33587786259541985,-27356,22,150,0.21923828125,-1.0529810264588901,-0.328325549790266,False,,False,,-27327,,9971,34,1,0,False,3,,
701.468,0.7652742419998049,0.002685546875,1.00146484375,-0.0185546875,-2.717557251908397,-0.2748091603053435,0.33587786259541985,-27353,12,155,0.2412109375,-1.0722692666105083,-0.3392513333171493,False,,False,,-27344,,9991,34,1,1,False,3,,
701.4730000000001,0.7702769129998615,0.002685546875,1.00732421875,-0.015869140625,-2.5343511450381677,-0.15267175572519084,0.24427480916030533,-27350,7,139,0.2412109375,-0.9102437288625617,-0.3042318408457016,False,,False,,-27344,,9994,34,1,0,False,3,,
701.4780000000001,0.7752782319998914,0.000244140625,1.005859375,-0.01513671875,-2.5343511450381677,-0.42748091603053434,0.5801526717557252,-27349,4,174,0.21923828125,-0.7332053707862021,-0.38085763775670856,False,,False,,-27327,,9978,34,1,1,False,3,,
701.4830000000001,0.7802798650000113,-0.00830078125,1.009033203125,-0.0185546875,-2.595419847328244,-0.24427480916030533,0.5190839694656488,-27346,10,178,0.2412109375,-0.6490175991353544,-0.38959185374485533,False,,False,,-27344,,9998,34,1,1,False,3,,
701.488,0.7852815539999938,0.0048828125,1.003662109375,-0.018310546875,-2.5343511450381677,-0.21374045801526717,0.5801526717557252,-27348,-5,125,0.21923828125,-0.5428858114972761,-0.27360462482522163,False,,False,,-27327,,9979,34,1,0,False,3,,
701.493,0.7902835959998811,-0.005615234375,1.01123046875,-0.014892578125,-2.6564885496183206,-0.2748091603053435,0.6412213740458015,-27346,3,185,0.2412109375,-0.4312061294111028,-0.40491288170111367,False,,False,,-27344,,9998,34,1,1,False,3,,
701.498,0.7952843589998793,-0.001220703125,1.00439453125,-0.015380859375,-2.564885496183206,-0.2748091603053435,0.4580152671755725,-27342,19,199,0.21923828125,-0.3249399122133889,-0.4355785627217529,False,,False,,-27327,,9985,34,1,1,False,3,,
701.503,0.8002863259998776,0.005126953125,1.0078125,-0.011474609375,-2.595419847328244,-0.3053435114503817,0.7022900763358778,-27341,4,185,0.21923828125,-0.31893933977371974,-0.40493484474132807,False,,False,,-27327,,9986,34,1,0,False,3,,
701.508,0.8052884589999394,0.001708984375,1.00732421875,-0.015380859375,-2.564885496183206,-0.183206106870229,0.4580152671755725,-27340,5,193,0.21923828125,-0.3777263395735574,-0.42244554073014223,False,,False,,-27327,,9987,34,1,1,False,3,,
701.513,0.8102904079999007,0.0,0.9912109375,-0.01708984375,-2.5343511450381677,-0.2748091603053435,0.8854961832061068,-27341,-4,182,0.21923828125,-0.38508540766942434,-0.3983683337455227,False,,False,,-27327,,9986,34,1,1,False,3,,
701.518,0.8152920599998197,-0.0087890625,1.01416015625,-0.013671875,-2.5038167938931295,-0.12213740458015267,0.5801526717557252,-27338,10,235,0.21923828125,-0.35886991324870554,-0.5143766946714168,False,,False,,-27327,,9989,34,1,0,False,3,,
701.523,0.8202940819999185,-0.001708984375,0.99609375,-0.017333984375,-2.5038167938931295,-0.33587786259541985,0.9465648854961831,-27335,16,235,0.21923828125,-0.31322730294995593,-0.5143766946714168,False,,False,,-27327,,9992,34,1,1,False,3,,
701.528,0.8252958459997899,0.0029296875,1.001220703125,-0.017822265625,-2.381679389312977,-0.15267175572519084,0.8549618320610687,-27332,16,242,0.21923828125,-0.25879171091454733,-0.5296985536616292,False,,False,,-27327,,9995,34,1,1,False,3,,
701.533,0.8302976829997988,0.0029296875,1.009765625,-0.01806640625,-2.381679389312977,-0.24427480916030533,0.916030534351145,-27328,20,232,0.2412109375,-0.11483274851924548,-0.5077826408359912,False,,False,,-27344,,10016,34,1,1,False,3,,
701.538,0.8352995759998976,0.003173828125,1.005859375,-0.018310546875,-2.6564885496183206,-0.061068702290076333,0.8854961832061068,-27326,7,196,0.21923828125,0.07497744327635324,-0.4290120517259476,False,,False,,-27327,,10001,34,1,0,False,3,,
701.543,0.8403012279998165,-0.0009765625,1.001708984375,-0.017333984375,-2.4732824427480917,-0.366412213740458,0.9770992366412213,-27324,12,183,0.21923828125,0.10243232653672545,-0.4005571707441245,False,,False,,-27327,,10003,34,1,0,False,3,,
701.548,0.8453032139998413,0.0048828125,1.005126953125,-0.0185546875,-2.351145038167939,-0.24427480916030533,0.7633587786259541,-27322,0,128,0.21923828125,0.023554837128056727,-0.280171135821027,False,,False,,-27327,,10005,34,1,0,False,3,,
701.553,0.8503048099998978,0.0,1.003662109375,-0.017822265625,-2.4122137404580153,-0.183206106870229,1.129770992366412,-27324,3,129,0.21923828125,-0.028925603641704968,-0.28235997281962877,False,,False,,-27327,,10003,34,1,1,False,3,,
701.558,0.8553057959998114,-0.001708984375,1.011962890625,-0.015869140625,-2.3206106870229006,-0.3053435114503817,0.7938931297709924,-27321,14,171,0.197265625,-0.14851729873610353,-0.37431136112100194,False,,False,,-27310,,9989,34,1,0,False,3,,
701.563,0.8603077440000106,0.0087890625,0.99951171875,-0.016845703125,-2.381679389312977,-0.366412213740458,0.8549618320610687,-27321,3,119,0.21923828125,-0.3015436850884822,-0.26047160283361104,False,,False,,-27327,,10006,34,1,0,False,3,,
701.568,0.8653092109998397,0.003173828125,1.0029296875,-0.01416015625,-2.198473282442748,-0.366412213740458,0.7022900763358778,-27320,0,112,0.2412109375,-0.19894938993976485,-0.24513644730013365,False,,False,,-27344,,10024,34,1,1,False,3,,
701.573,0.8703116409999438,0.001220703125,1.006591796875,-0.015869140625,-2.3206106870229006,-0.2748091603053435,0.9465648854961831,-27319,6,145,0.21923828125,0.05934586751190589,-0.31738136479725715,False,,False,,-27327,,10008,34,1,0,False,3,,
701.578,0.8753127559998575,0.004638671875,1.006591796875,-0.012939453125,-2.351145038167939,-0.2748091603053435,0.732824427480916,-27315,20,128,0.21923828125,0.13197949156646133,-0.280171135821027,False,,False,,-27327,,10012,34,1,1,False,3,,
701.583,0.8803152599998612,0.009765625,1.000244140625,-0.013671875,-2.4122137404580153,-0.2748091603053435,0.7938931297709924,-27314,0,26,0.197265625,-0.00855314659024746,-0.05691283853301784,False,,False,,-27310,,9996,34,1,0,False,3,,
701.588,0.885317189999796,0.002197265625,1.007080078125,-0.016357421875,-2.2900763358778624,-0.15267175572519084,0.7938931297709924,-27313,0,31,0.21923828125,-0.18625384391773508,-0.06785394695665498,False,,False,,-27327,,10014,34,1,1,False,3,,
701.593,0.8903193049998208,0.0009765625,1.00732421875,-0.013671875,-2.2900763358778624,-0.3053435114503817,0.6106870229007634,-27312,9,59,0.21923828125,-0.1970030657448827,-0.12914138291750463,False,,False,,-27327,,10015,34,1,0,False,3,,
701.5980000000001,0.8953207170000042,0.005126953125,1.003662109375,-0.013916015625,-2.1374045801526718,-0.2748091603053435,0.732824427480916,-27311,3,69,0.2412109375,-0.011557202197792354,-0.15102156128311806,False,,False,,-27344,,10033,34,1,0,False,3,,
701.6030000000001,0.9003226279999126,0.0,1.01123046875,-0.015625,-2.1374045801526718,-0.15267175572519084,0.8244274809160305,-27307,18,51,0.197265625,0.1083072176770846,-0.11163672173784267,False,,False,,-27310,,10003,34,1,1,False,3,,
701.6080000000001,0.9053239649999796,0.007568359375,1.00634765625,-0.015625,-2.015267175572519,-0.24427480916030533,0.6106870229007634,-27307,-2,-16,0.21923828125,-3.2201217559077455e-05,0.03502139197762837,False,,False,,-27327,,10020,34,1,0,False,3,,
701.613,0.9103262289997929,0.005615234375,1.010498046875,-0.01318359375,-1.984732824427481,-0.183206106870229,0.6412213740458015,-27308,-1,-54,0.21923828125,-0.06951326732260601,0.11819719792449576,False,,False,,-27327,,10019,34,1,1,False,3,,
701.618,0.9153277509999498,-0.0009765625,0.998779296875,-0.01708984375,-2.045801526717557,-0.24427480916030533,0.9465648854961831,-27311,-7,-32,0.21923828125,-0.020233836920966114,0.07004278395525675,False,,False,,-27327,,10016,34,1,0,False,3,,
701.623,0.9203299219998371,-0.01171875,1.010986328125,-0.01513671875,-1.8015267175572518,-0.366412213740458,0.6717557251908397,-27308,6,-4,0.197265625,-0.07525992184085256,0.008755821312771975,False,,False,,-27310,,10002,34,1,1,False,3,,
701.628,0.9253313889998935,0.00439453125,1.011962890625,-0.0166015625,-1.7709923664122136,-0.15267175572519084,0.7633587786259541,-27307,-8,-48,0.21923828125,-0.19276207352403302,0.10506417593288513,False,,False,,-27327,,10020,34,1,1,False,3,,
701.633,0.9303330589998495,-0.0009765625,1.00830078125,-0.020263671875,-2.015267175572519,-0.2748091603053435,0.8244274809160305,-27309,-2,-41,0.21923828125,-0.1643800368959394,0.0897423169426727,False,,False,,-27327,,10018,34,1,0,False,3,,
701.638,0.935334211999816,-0.00244140625,1.001220703125,-0.017333984375,-1.8931297709923662,-0.183206106870229,0.8244274809160305,-27308,1,-38,0.21923828125,-0.044714978984366355,0.08317580594686738,False,,False,,-27327,,10019,34,1,1,False,3,,
701.643,0.9403366049998567,-0.000244140625,1.01123046875,-0.015380859375,-2.1374045801526718,-0.12213740458015267,0.8244274809160305,-27309,0,-64,0.21923828125,0.0356244990355246,0.1400855679105135,False,,False,,-27327,,10018,34,1,1,False,3,,
701.648,0.9453384049998022,-0.001220703125,1.010986328125,-0.017333984375,-1.9236641221374045,-0.21374045801526717,0.916030534351145,-27311,-9,-116,0.197265625,-0.003968470095546295,0.2539188180703873,False,,False,,-27310,,9999,34,1,1,False,3,,
701.653,0.9503399829998216,0.000732421875,1.00146484375,-0.01904296875,-1.8625954198473282,-0.2748091603053435,0.8549618320610687,-27313,-6,-101,0.21923828125,-0.11729965837856664,0.22107253685877912,False,,False,,-27327,,10014,34,1,0,False,3,,
701.658,0.9553418759999204,0.000732421875,1.0048828125,-0.015625,-1.8625954198473282,-0.2748091603053435,0.9465648854961831,-27313,-2,-100,0.21923828125,-0.09230472503749719,0.21888369986017733,False,,False,,-27327,,10014,34,1,1,False,3,,
701.663,0.9603441579999981,0.0029296875,1.005859375,-0.01611328125,-1.984732824427481,-0.21374045801526717,0.7938931297709924,-27314,0,-77,0.197265625,-0.0688590279506278,0.16854956027086052,False,,False,,-27310,,9996,34,1,1,False,3,,
701.668,0.9653452539998852,0.009765625,1.00634765625,-0.015380859375,-1.8931297709923662,-0.24427480916030533,0.7633587786259541,-27312,7,-79,0.21923828125,-0.13654738751739803,0.1729181228895401,False,,False,,-27327,,10015,34,1,0,False,3,,
701.673,0.9703472769999735,0.00048828125,1.001220703125,-0.0205078125,-1.7404580152671756,-0.24427480916030533,0.6717557251908397,-27314,-1,-127,0.21923828125,-0.08073311905555941,0.2779822988224252,False,,False,,-27327,,10013,34,1,1,False,3,,
701.678,0.9753484289999506,-0.0029296875,1.0078125,-0.015869140625,-1.9541984732824427,-0.3053435114503817,1.0076335877862594,-27316,-4,-94,0.21923828125,0.04980599641770611,0.2057506778685667,False,,False,,-27327,,10011,34,1,0,False,3,,
701.683,0.9803507479998643,-0.005859375,1.005615234375,-0.017822265625,-1.7709923664122136,-0.15267175572519084,0.8549618320610687,-27315,7,-69,0.21923828125,0.12952637076977241,0.15102975290352236,False,,False,,-27327,,10012,34,1,0,False,3,,
701.688,0.9853523629999472,0.005126953125,1.005859375,-0.01708984375,-1.7709923664122136,-0.061068702290076333,0.7022900763358778,-27317,-2,-98,0.197265625,0.08199287608031482,0.2145176221629134,False,,False,,-27310,,9993,34,1,0,False,3,,
701.693,0.990354921999824,0.000732421875,1.007568359375,-0.014892578125,-1.7404580152671756,-0.24427480916030533,0.8854961832061068,-27319,-8,-93,0.197265625,-0.13159353061830875,0.20357284552194843,False,,False,,-27310,,9991,34,1,0,False,3,,
701.698,0.9953564999998434,-0.00048828125,1.005859375,-0.01806640625,-1.7404580152671756,-0.21374045801526717,0.7633587786259541,-27319,-3,-122,0.197265625,-0.3462631147146687,0.26705255003954526,False,,False,,-27310,,9991,34,1,1,False,3,,
701.703,1.0003584669998418,0.0048828125,1.00537109375,-0.013427734375,-1.8625954198473282,-0.2748091603053435,0.7938931297709924,-27324,-20,-97,0.197265625,-0.45612526779217816,0.21232866683472038,False,,False,,-27310,,9986,34,1,1,False,3,,
701.708,1.0053594709997924,-0.00244140625,1.006103515625,-0.017822265625,-1.618320610687023,-0.5190839694656488,0.9770992366412213,-27324,-2,0,0.197265625,-0.48994340665817804,-0.0,False,,False,,-27310,,9986,34,1,1,False,3,,
701.713,1.0103620859999864,0.002197265625,1.000732421875,-0.017578125,-1.8015267175572518,-0.12213740458015267,1.0381679389312977,-27325,1,-6,0.197265625,-0.4722738718673666,0.013133731969157963,False,,False,,-27310,,9985,34,1,0,False,3,,
701.718,1.0153639609998208,0.001708984375,1.008056640625,-0.018310546875,-1.7709923664122136,-0.183206106870229,0.6717557251908397,-27324,-4,-6,0.17529296875,-0.5112590708691473,0.013134439601469499,False,,False,,-27294,,9970,34,1,1,False,3,,
701.7230000000001,1.0203665569999885,-0.001708984375,1.0029296875,-0.018310546875,-1.83206106870229,-0.2748091603053435,1.0381679389312977,-27324,-2,-1,0.197265625,-0.5834480545164705,0.002188955328192994,False,,False,,-27310,,9986,34,1,0,False,3,,
701.7280000000001,1.0253686730000027,-0.005859375,1.004638671875,-0.01806640625,-1.83206106870229,-0.24427480916030533,1.0381679389312977,-27323,6,0,0.21923828125,-0.40636221279281776,-0.0,False,,False,,-27327,,10004,34,1,1,False,3,,
701.7330000000001,1.030371268999943,-0.006103515625,1.004638671875,-0.01953125,-1.7099236641221374,-0.3053435114503817,1.2519083969465647,-27323,1,44,0.21923828125,0.00462748037839944,-0.09630882793847803,False,,False,,-27327,,10004,34,1,0,False,3,,
701.738,1.035372809999899,-0.00439453125,1.007568359375,-0.015380859375,-1.8931297709923662,-0.15267175572519084,1.0687022900763359,-27318,12,71,0.21923828125,0.3561015882764235,-0.15540742690072593,False,,False,,-27327,,10009,34,1,1,False,3,,
701.743,1.0403745179999078,0.004150390625,1.001953125,-0.017578125,-1.648854961832061,-0.24427480916030533,1.4351145038167938,-27319,-2,6,0.1533203125,0.2881422417312833,-0.013135144880579885,False,,False,,-27277,,9958,34,1,0,False,3,,
701.748,1.0453757069999483,-0.003173828125,1.0048828125,-0.017333984375,-1.3740458015267174,-0.061068702290076333,1.2519083969465647,-27321,-16,-25,0.17529296875,-0.21987594148745415,0.05472683167278957,False,,False,,-27294,,9973,34,1,1,False,3,,
701.753,1.05037771100001,-0.006591796875,1.00732421875,-0.012451171875,-1.5267175572519083,0.030534351145038167,1.3740458015267174,-27322,-3,-23,0.197265625,-0.5280307890093295,0.05034597254843885,False,,False,,-27310,,9988,34,1,1,False,3,,
701.758,1.055379529999982,-0.005859375,0.9990234375,-0.012451171875,-1.282442748091603,-0.12213740458015267,1.8015267175572518,-27319,14,88,0.21923828125,-0.33021992265932343,-0.19261765587695606,False,,False,,-27327,,10008,34,1,0,False,3,,
701.763,1.0603821269999116,-0.010009765625,1.01123046875,-0.0087890625,-1.3435114503816794,-0.0916030534351145,1.3435114503816794,-27309,54,142,0.197265625,-0.00031195443347607765,-0.3108316566034051,False,,False,,-27310,,10001,34,1,1,False,3,,
701.768,1.0653839819999575,0.006591796875,1.01318359375,-0.016845703125,-1.282442748091603,0.21374045801526717,1.3129770992366412,-27301,38,3,0.197265625,0.12304311120814385,-0.006566865984578982,False,,False,,-27310,,10009,34,1,0,False,3,,
701.773,1.0703856159998395,0.008056640625,0.999755859375,-0.01953125,-1.2519083969465647,0.0,1.7404580152671756,-27301,-6,-89,0.197265625,0.10401561557720382,0.19481702420917646,False,,False,,-27310,,10009,34,1,1,False,3,,
701.778,1.075386915999843,-0.005126953125,1.00537109375,-0.02099609375,-1.0687022900763359,0.0916030534351145,1.648854961832061,-27304,-18,-64,0.21923828125,0.1717133450380035,0.1400855679105135,False,,False,,-27327,,10023,34,1,0,False,3,,
701.788,1.0803887539998414,0.007568359375,1.00537109375,-0.025634765625,-1.4961832061068703,0.0916030534351145,1.5572519083969465,-27301,-3,-56,0.21923828125,0.377851015582446,0.1225748719216993,False,,False,,-27327,,10026,34,1,1,False,3,,
701.793,1.0903932249998434,0.010009765625,1.0087890625,-0.025634765625,-1.4961832061068703,-0.0916030534351145,1.3435114503816794,-27303,-10,-99,0.21923828125,0.5679606249159048,0.21669486286157555,False,,False,,-27327,,10024,34,1,1,False,3,,
701.798,1.0953937469998891,0.007080078125,0.999755859375,-0.028564453125,-1.5877862595419847,0.0,1.8015267175572518,-27309,-18,-140,0.197265625,0.5560044942592047,0.30645374594701913,False,,False,,-27310,,10001,34,1,1,False,3,,
701.803,1.1003955289997975,-0.00146484375,1.0126953125,-0.0244140625,-1.7709923664122136,-0.0916030534351145,1.4351145038167938,-27307,0,-117,0.197265625,0.32715669026474414,0.25610777339858026,False,,False,,-27310,,10003,34,1,0,False,3,,
701.808,1.1053968479998275,0.00537109375,1.00830078125,-0.03076171875,-1.984732824427481,-0.0916030534351145,1.3435114503816794,-27307,-2,-139,0.197265625,0.06584619198516362,0.3042647906188261,False,,False,,-27310,,10003,34,1,1,False,3,,
701.813,1.1103989259997888,0.000244140625,1.008056640625,-0.029541015625,-1.83206106870229,-0.15267175572519084,1.5877862595419847,-27307,1,-85,0.197265625,-0.10703535057563066,0.18606120289640446,False,,False,,-27310,,10003,34,1,0,False,3,,
701.818,1.1154002079999827,-0.0009765625,1.010009765625,-0.028564453125,-2.1374045801526718,-0.12213740458015267,1.4045801526717556,-27302,16,-32,0.197265625,-0.20931467350314453,0.0700465705021758,False,,False,,-27310,,10008,34,1,1,False,3,,
701.823,1.1204021559999546,0.01025390625,1.00341796875,-0.025390625,-2.259541984732824,-0.21374045801526717,1.2213740458015268,-27303,-3,-47,0.21923828125,-0.16983972457334262,0.10287533893428336,False,,False,,-27327,,10024,34,1,1,False,3,,
701.828,1.12540401199999,0.000732421875,1.012451171875,-0.0263671875,-2.351145038167939,-0.3053435114503817,1.282442748091603,-27304,-6,-42,0.197265625,-0.04262161468156446,0.09193612378410575,False,,False,,-27310,,10006,34,1,1,False,3,,
701.833,1.1304061269997874,0.003173828125,1.004150390625,-0.02294921875,-2.351145038167939,-0.3053435114503817,1.3435114503816794,-27303,-2,-37,0.197265625,-0.04586311993652961,0.08099134714314077,False,,False,,-27310,,10007,34,1,1,False,3,,
701.838,1.1354074089999813,0.01025390625,1.007568359375,-0.02392578125,-2.3206106870229006,-0.2748091603053435,1.0687022900763359,-27305,-10,-69,0.197265625,-0.13251469868020124,0.15103791764531657,False,,False,,-27310,,10005,34,1,0,False,3,,
701.843,1.1404092459999902,0.006591796875,1.00439453125,-0.02685546875,-2.4732824427480917,-0.21374045801526717,1.099236641221374,-27306,-5,-65,0.21923828125,-0.08918647986048757,0.14227440490911528,False,,False,,-27327,,10021,34,1,1,False,3,,
701.8480000000001,1.1454110279998986,0.01318359375,1.005615234375,-0.022216796875,-2.4732824427480917,-0.4580152671755725,1.0381679389312977,-27302,13,-21,0.197265625,0.03402377621371094,0.045968061892052874,False,,False,,-27310,,10008,34,1,1,False,3,,
701.8530000000001,1.1504134019999128,0.01220703125,1.0,-0.025390625,-2.564885496183206,-0.33587786259541985,0.9465648854961831,-27303,-1,-45,0.21923828125,0.11031161571307836,0.0984976649370798,False,,False,,-27327,,10024,34,1,1,False,3,,
701.8580000000001,1.1554152769999746,0.005859375,1.0126953125,-0.022216796875,-2.5038167938931295,-0.21374045801526717,0.732824427480916,-27305,-8,-76,0.21923828125,0.23863420247289513,0.16635161189373476,False,,False,,-27327,,10022,34,1,0,False,3,,
701.863,1.1604167439998037,0.00634765625,1.00439453125,-0.026123046875,-2.5343511450381677,-0.24427480916030533,0.8549618320610687,-27305,-2,-67,0.197265625,0.30176377916128005,0.14666000698893056,False,,False,,-27310,,10005,34,1,1,False,3,,
701.868,1.1654178960000081,0.019287109375,0.999267578125,-0.02001953125,-2.8396946564885495,-0.42748091603053434,0.5801526717557252,-27303,12,-77,0.197265625,0.1414963459492022,0.16854956027086052,False,,False,,-27310,,10007,34,1,0,False,3,,
701.873,1.1704204369998479,0.00244140625,1.009033203125,-0.02001953125,-2.717557251908397,-0.183206106870229,0.6717557251908397,-27306,-5,-131,0.21923828125,0.027341689791306648,0.28673764681683234,False,,False,,-27327,,10021,34,1,0,False,3,,
701.878,1.1754225329998462,-0.0009765625,1.0048828125,-0.0205078125,-2.8091603053435112,-0.3969465648854962,0.6717557251908397,-27306,9,-71,0.197265625,0.040188950460300174,0.15541582830170256,False,,False,,-27310,,10004,34,1,1,False,3,,
701.883,1.1804247229999874,0.003173828125,1.004150390625,-0.01904296875,-2.778625954198473,-0.42748091603053434,0.6106870229007634,-27302,20,-33,0.197265625,-0.04305693426193953,0.0722355258303688,False,,False,,-27310,,10008,34,1,0,False,3,,
701.888,1.1854258189998745,0.007080078125,1.0068359375,-0.0185546875,-2.595419847328244,-0.21374045801526717,0.4580152671755725,-27304,-13,-81,0.21923828125,-0.09298789786208357,0.17729579688674363,False,,False,,-27327,,10023,34,1,1,False,3,,
701.893,1.1904276010000103,-0.008544921875,1.009521484375,-0.01953125,-2.8396946564885495,-0.33587786259541985,0.6106870229007634,-27306,-9,-63,0.21923828125,0.05897279677387572,0.1378967309119117,False,,False,,-27327,,10021,34,1,1,False,3,,
701.898,1.1954296789999717,-0.002197265625,1.0087890625,-0.017822265625,-2.564885496183206,-0.42748091603053434,0.15267175572519084,-27302,6,-26,0.21923828125,0.23995251063630957,0.056909761963646104,False,,False,,-27327,,10025,34,1,0,False,3,,
701.903,1.2004313869999805,0.007568359375,1.001953125,-0.019287109375,-2.8702290076335877,-0.3969465648854962,0.7022900763358778,-27304,-11,-85,0.197265625,0.2484909349453816,0.18606120289640446,False,,False,,-27310,,10006,34,1,0,False,3,,
701.908,1.2054326499999206,-0.0078125,1.00439453125,-0.01953125,-2.8396946564885495,-0.33587786259541985,0.5801526717557252,-27306,-15,-119,0.197265625,0.057490974210629264,0.26048568405496625,False,,False,,-27310,,10004,34,1,1,False,3,,
701.913,1.210434209999903,-0.0029296875,1.0068359375,-0.018798828125,-2.748091603053435,-0.48854961832061067,0.549618320610687,-27309,-5,-125,0.197265625,-0.15788257095957753,0.2736194160241242,False,,False,,-27310,,10001,34,1,0,False,3,,
701.918,1.215435768999896,-0.000244140625,1.000732421875,-0.01904296875,-2.9618320610687023,-0.42748091603053434,0.6717557251908397,-27305,12,-89,0.197265625,-0.28332947185620483,0.19481702420917646,False,,False,,-27310,,10005,34,1,1,False,3,,
701.923,1.2204374579998785,-0.002685546875,1.012939453125,-0.017333984375,-2.8091603053435112,-0.42748091603053434,0.5190839694656488,-27302,11,-32,0.197265625,-0.3410241972571992,0.0700465705021758,False,,False,,-27310,,10008,34,1,1,False,3,,
701.928,1.2254389069998979,0.002685546875,1.008056640625,-0.021240234375,-2.8702290076335877,-0.2748091603053435,0.6106870229007634,-27302,-4,-42,0.197265625,-0.3506311436519036,0.09193612378410575,False,,False,,-27310,,10008,34,1,0,False,3,,
701.933,1.2304413919998751,-0.0048828125,1.00390625,-0.020263671875,-2.8702290076335877,-0.3969465648854962,0.6412213740458015,-27303,2,-41,0.21923828125,-0.2403681821763689,0.0897423169426727,False,,False,,-27327,,10024,34,1,1,False,3,,
701.938,1.235442599999942,-0.004638671875,1.010498046875,-0.019287109375,-2.900763358778626,-0.33587786259541985,0.6412213740458015,-27303,8,-37,0.21923828125,0.026172701201719717,0.08098696894826561,False,,False,,-27327,,10024,34,1,0,False,3,,
701.943,1.2404452339999352,-0.0029296875,1.0078125,-0.01708984375,-2.6259541984732824,-0.366412213740458,0.7022900763358778,-27302,7,-42,0.197265625,0.19501656300733033,0.09193612378410575,False,,False,,-27310,,10008,34,1,0,False,3,,
701.948,1.2454461269999229,-0.0009765625,1.005615234375,-0.016845703125,-2.748091603053435,-0.183206106870229,0.732824427480916,-27304,-14,-85,0.21923828125,0.1993815001869479,0.18605114488115074,False,,False,,-27327,,10023,34,1,0,False,3,,
701.953,1.2504476679998788,-0.005615234375,1.00634765625,-0.01953125,-2.564885496183206,-0.3969465648854962,0.8854961832061068,-27306,-3,-122,0.2412109375,0.3626779082949998,0.26702363009478847,False,,False,,-27344,,10038,34,1,0,False,3,,
701.958,1.2554493009999987,-0.004150390625,1.008056640625,-0.017822265625,-2.6564885496183206,-0.33587786259541985,0.8244274809160305,-27306,3,-79,0.21923828125,0.6147870938913275,0.1729181228895401,False,,False,,-27327,,10021,34,1,1,False,3,,
701.963,1.2604517309998755,-0.002197265625,1.002685546875,-0.01708984375,-2.778625954198473,-0.24427480916030533,0.732824427480916,-27303,9,-82,0.197265625,0.5505757768744967,0.17949433691182548,False,,False,,-27310,,10007,34,1,0,False,3,,
701.968,1.265453030999879,0.002197265625,1.00634765625,-0.017822265625,-2.5343511450381677,-0.0916030534351145,0.7938931297709924,-27306,-14,-180,0.197265625,0.20039315882242875,0.3940119590747389,False,,False,,-27310,,10004,34,1,1,False,3,,
701.9730000000001,1.2704554429999462,-0.009521484375,1.005859375,-0.020751953125,-2.8091603053435112,-0.12213740458015267,1.2519083969465647,-27312,-13,-142,0.197265625,-0.1285522557042611,0.3108316566034051,False,,False,,-27310,,9998,34,1,0,False,3,,
701.9780000000001,1.2754573169997911,-0.007568359375,1.0068359375,-0.014404296875,-2.4122137404580153,-0.24427480916030533,0.8549618320610687,-27310,22,-30,0.197265625,-0.32919485546628574,0.06566865984578982,False,,False,,-27310,,10000,34,1,1,False,3,,
701.9830000000001,1.280458931999874,0.00830078125,1.003173828125,-0.017333984375,-2.717557251908397,-0.33587786259541985,1.1908396946564885,-27308,13,-37,0.21923828125,-0.34317495534959946,0.08098696894826561,False,,False,,-27327,,10019,34,1,0,False,3,,
701.988,1.2854599919999146,0.001708984375,1.008056640625,-0.017578125,-2.4427480916030535,-0.33587786259541985,1.0076335877862594,-27305,0,-23,0.197265625,-0.2363157040117092,0.05034597254843885,False,,False,,-27310,,10005,34,1,0,False,3,,
701.993,1.290461680999897,0.00390625,1.010009765625,-0.016357421875,-2.4732824427480917,-0.24427480916030533,0.9770992366412213,-27304,0,-18,0.21923828125,-0.14879730012154913,0.03939906597483192,False,,False,,-27327,,10023,34,1,1,False,3,,
701.998,1.2954636669999218,0.00048828125,1.00537109375,-0.013427734375,-2.687022900763359,-0.061068702290076333,0.9770992366412213,-27305,-5,-75,0.197265625,-0.08071383488501707,0.16417164961447453,False,,False,,-27310,,10005,34,1,1,False,3,,
702.003,1.3004656149998937,-0.00146484375,1.0048828125,-0.0205078125,-2.5343511450381677,-0.15267175572519084,1.1603053435114503,-27306,0,-63,0.197265625,-0.11882135550811834,0.1379041856761586,False,,False,,-27310,,10004,34,1,1,False,3,,
702.008,1.305466970999987,0.012939453125,0.9970703125,-0.015869140625,-2.381679389312977,-0.3969465648854962,0.916030534351145,-27304,12,-72,0.197265625,-0.2219733191704665,0.15760478362989555,False,,False,,-27310,,10006,34,1,0,False,3,,
702.013,1.3104689749998215,-0.004150390625,1.0107421875,-0.017333984375,-2.4427480916030535,-0.061068702290076333,1.129770992366412,-27306,0,-71,0.21923828125,-0.18204112688418367,0.15540742690072593,False,,False,,-27327,,10021,34,1,1,False,3,,
702.018,1.3154708679999203,0.001708984375,1.00830078125,-0.016357421875,-2.564885496183206,-0.42748091603053434,0.8244274809160305,-27305,5,-16,0.197265625,-0.053549582370441315,0.0350232852510879,False,,False,,-27310,,10005,34,1,0,False,3,,
702.023,1.320473371999924,0.008056640625,1.0029296875,-0.01806640625,-2.351145038167939,-0.24427480916030533,1.0687022900763359,-27303,-3,-37,0.197265625,-0.055096486892115576,0.08099134714314077,False,,False,,-27310,,10007,34,1,1,False,3,,
702.028,1.3254745609999645,0.00244140625,1.002197265625,-0.020263671875,-2.2900763358778624,-0.061068702290076333,0.8244274809160305,-27306,-9,-76,0.197265625,-0.13991948251326747,0.16636060494266752,False,,False,,-27310,,10004,34,1,0,False,3,,
702.033,1.3304770649999682,-0.005126953125,1.0126953125,-0.018798828125,-2.595419847328244,-0.183206106870229,1.1603053435114503,-27307,2,-65,0.197265625,-0.1830806247500663,0.1422820963325446,False,,False,,-27310,,10003,34,1,0,False,3,,
702.038,1.335477883999829,0.00146484375,1.00439453125,-0.02099609375,-2.381679389312977,-0.21374045801526717,0.7633587786259541,-27304,11,-21,0.197265625,-0.19605458924963945,0.045968061892052874,False,,False,,-27310,,10006,34,1,0,False,3,,
702.043,1.34048020299997,0.004150390625,1.006591796875,-0.01806640625,-2.6259541984732824,-0.33587786259541985,1.0076335877862594,-27302,0,-34,0.17529296875,-0.2768826949675582,0.07442849107499382,False,,False,,-27294,,9992,34,1,0,False,3,,
702.048,1.345482261999905,-0.00244140625,1.004638671875,-0.01953125,-2.4732824427480917,-0.15267175572519084,0.7633587786259541,-27303,-3,-42,0.197265625,-0.3947359569394553,0.09193612378410575,False,,False,,-27310,,10007,34,1,0,False,3,,
702.053,1.3504839509998874,-0.000732421875,1.005859375,-0.019775390625,-2.5038167938931295,-0.183206106870229,0.7938931297709924,-27304,-1,-35,0.197265625,-0.3503538440948367,0.07661343648675478,False,,False,,-27310,,10006,34,1,1,False,3,,
702.058,1.3554853809998804,0.0009765625,1.007080078125,-0.017578125,-2.4427480916030535,-0.33587786259541985,0.9465648854961831,-27302,7,2,0.197265625,-0.20548719287138273,-0.004377910656385988,False,,False,,-27310,,10008,34,1,0,False,3,,
702.063,1.3604878109999845,0.004638671875,1.009765625,-0.017578125,-2.381679389312977,-0.2748091603053435,0.732824427480916,-27301,5,-1,0.21923828125,-0.007812268065993347,0.0021888369986017733,False,,False,,-27327,,10026,34,1,0,False,3,,
702.068,1.3654896299999564,-0.0029296875,1.009033203125,-0.021484375,-2.4427480916030535,-0.15267175572519084,0.7633587786259541,-27303,-13,-39,0.197265625,0.2078514131123565,0.08536925779952677,False,,False,,-27310,,10007,34,1,1,False,3,,
702.073,1.3704918009998437,-0.000244140625,1.003662109375,-0.019775390625,-2.6564885496183206,-0.33587786259541985,0.9465648854961831,-27302,4,-44,0.21923828125,0.32947022308895374,0.09630882793847803,False,,False,,-27327,,10025,34,1,1,False,3,,
702.078,1.3754927679999582,0.004150390625,1.00830078125,-0.017578125,-2.5038167938931295,-0.12213740458015267,0.8549618320610687,-27304,-7,-90,0.197265625,0.3810031501929041,0.19700597953736945,False,,False,,-27310,,10006,34,1,1,False,3,,
702.083,1.380495308999798,0.003173828125,1.007080078125,-0.019775390625,-2.4122137404580153,-0.33587786259541985,0.8549618320610687,-27304,1,-70,0.21923828125,0.38344657006587024,0.15321858990212414,False,,False,,-27327,,10023,34,1,1,False,3,,
702.088,1.3854965159998756,0.010986328125,1.00341796875,-0.015869140625,-2.6564885496183206,-0.3969465648854962,0.7938931297709924,-27304,9,-73,0.197265625,0.35421007059561427,0.15979373895808854,False,,False,,-27310,,10006,34,1,0,False,3,,
702.093,1.3904988909998792,-0.005615234375,1.004638671875,-0.020751953125,-2.595419847328244,-0.061068702290076333,0.916030534351145,-27305,-5,-72,0.21923828125,0.30700427535575925,0.15759626389932768,False,,False,,-27327,,10022,34,1,1,False,3,,
702.0980000000001,1.3955000989999462,0.001953125,1.009765625,-0.02001953125,-2.5343511450381677,-0.3969465648854962,0.732824427480916,-27303,6,-71,0.197265625,0.2520660496084727,0.15541582830170256,False,,False,,-27310,,10007,34,1,0,False,3,,
702.1030000000001,1.4005025839999234,0.003662109375,0.9990234375,-0.020751953125,-2.5038167938931295,-0.12213740458015267,1.099236641221374,-27305,-9,-75,0.197265625,0.10832501797167567,0.16417164961447453,False,,False,,-27310,,10005,34,1,1,False,3,,
702.1080000000001,1.4055042919999323,0.008056640625,0.99609375,-0.019287109375,-2.687022900763359,-0.4580152671755725,0.916030534351145,-27302,9,-66,0.197265625,-0.08082261506843827,0.1444710516607376,False,,False,,-27310,,10008,34,1,0,False,3,,
702.113,1.4105066479999095,-0.003173828125,1.00732421875,-0.01708984375,-2.5038167938931295,-0.3053435114503817,1.0687022900763359,-27304,5,-78,0.197265625,-0.195639979941563,0.17073851559905354,False,,False,,-27310,,10006,34,1,1,False,3,,
702.118,1.4155082069999025,0.0009765625,1.005615234375,-0.01806640625,-2.564885496183206,-0.24427480916030533,0.732824427480916,-27301,21,-27,0.21923828125,-0.16530485897691216,0.05909859896224788,False,,False,,-27327,,10026,34,1,0,False,3,,
702.123,1.4205101929999273,0.0048828125,1.00341796875,-0.017822265625,-2.6564885496183206,-0.183206106870229,0.916030534351145,-27303,0,-40,0.17529296875,-0.13256987083957628,0.08756293067646331,False,,False,,-27294,,9991,34,1,1,False,3,,
702.128,1.4255115109999679,-0.00537109375,1.001220703125,-0.01611328125,-2.6564885496183206,-0.183206106870229,0.916030534351145,-27304,-1,-35,0.197265625,-0.27743939428827474,0.07661343648675478,False,,False,,-27310,,10006,34,1,1,False,3,,
702.133,1.430513755999982,0.0009765625,1.01318359375,-0.0107421875,-2.748091603053435,-0.3053435114503817,0.732824427480916,-27304,0,-78,0.197265625,-0.34806401886014465,0.17073851559905354,False,,False,,-27310,,10006,34,1,0,False,3,,
702.138,1.43551566799988,0.002197265625,1.001220703125,-0.021484375,-2.687022900763359,-0.3053435114503817,1.1908396946564885,-27304,5,-45,0.21923828125,-0.18888408757762332,0.0984976649370798,False,,False,,-27327,,10023,35,1,1,False,3,,
702.143,1.4405180789999577,-0.003173828125,1.015625,-0.0146484375,-2.564885496183206,-0.3053435114503817,0.7022900763358778,-27301,3,-5,0.17529296875,-0.07162008110134543,0.010945366334557914,False,,False,,-27294,,9993,35,1,0,False,3,,
702.148,1.4455195269999876,0.001220703125,1.01123046875,-0.015380859375,-2.381679389312977,-0.24427480916030533,0.9465648854961831,-27302,-12,-46,0.197265625,-0.16717309626136634,0.1006919450968777,False,,False,,-27310,,10008,34,1,0,False,3,,
702.153,1.4505210129998432,-0.000732421875,1.005859375,-0.017333984375,-2.6259541984732824,-0.15267175572519084,0.916030534351145,-27305,-3,-72,0.197265625,-0.215026575881411,0.15760478362989555,False,,False,,-27310,,10005,34,1,0,False,3,,
702.158,1.4555219799999577,-0.001220703125,1.0029296875,-0.01806640625,-2.595419847328244,-0.366412213740458,1.129770992366412,-27304,5,-48,0.197265625,-0.14018667174216454,0.1050698557532637,False,,False,,-27310,,10006,34,1,1,False,3,,
702.163,1.4605238539998027,-0.0068359375,1.01123046875,-0.013427734375,-2.4122137404580153,-0.183206106870229,0.6717557251908397,-27300,13,-10,0.197265625,-0.08092630341106635,0.021889553281929937,False,,False,,-27310,,10010,34,1,0,False,3,,
702.168,1.4655253399998855,0.00341796875,1.010498046875,-0.01708984375,-2.4732824427480917,-0.030534351145038167,0.8854961832061068,-27302,-6,-42,0.197265625,-0.036418484895399936,0.09193612378410575,False,,False,,-27310,,10008,34,1,0,False,3,,
702.173,1.4705278809999527,-0.00341796875,1.003662109375,-0.019775390625,-2.5038167938931295,-0.3969465648854962,0.8549618320610687,-27303,6,-33,0.17529296875,-0.09320468163017473,0.07223941780808224,False,,False,,-27294,,9991,34,1,1,False,3,,
702.178,1.4755296999999246,0.000244140625,1.009521484375,-0.01708984375,-2.4732824427480917,-0.366412213740458,0.6717557251908397,-27302,7,-49,0.21923828125,-0.12213714147256302,0.1072530129314869,False,,False,,-27327,,10025,34,1,0,False,3,,
702.183,1.480531610999833,0.0,1.00830078125,-0.015625,-2.6564885496183206,-0.366412213740458,0.9770992366412213,-27302,-1,-50,0.197265625,0.045632635506738475,0.10944776640964969,False,,False,,-27310,,10008,34,1,1,False,3,,
702.188,1.4855334669998683,0.001220703125,1.0087890625,-0.01806640625,-2.595419847328244,-0.33587786259541985,0.9465648854961831,-27302,10,-1,0.197265625,0.14956621240982693,0.002188955328192994,False,,False,,-27310,,10008,34,1,0,False,3,,
702.193,1.490535859999909,0.004638671875,1.002685546875,-0.017578125,-2.6564885496183206,-0.33587786259541985,0.6717557251908397,-27303,-12,-41,0.197265625,0.11595202255574222,0.08974716845591274,False,,False,,-27310,,10007,34,1,0,False,3,,
702.198,1.4955369379999865,0.00732421875,1.00537109375,-0.018798828125,-2.6259541984732824,-0.15267175572519084,1.0687022900763359,-27305,-18,-87,0.197265625,0.08507868276467952,0.19043911355279045,False,,False,,-27310,,10005,34,1,1,False,3,,
702.203,1.5005384789999425,-0.01611328125,1.0166015625,-0.018798828125,-2.5343511450381677,-0.12213740458015267,0.6412213740458015,-27302,20,-23,0.197265625,0.05844335365396924,0.05034597254843885,False,,False,,-27310,,10008,34,1,1,False,3,,
702.208,1.505539945999999,0.008544921875,1.008056640625,-0.017333984375,-2.778625954198473,-0.3969465648854962,0.8854961832061068,-27303,-2,-54,0.17529296875,-0.05159119015995916,0.11820995641322549,False,,False,,-27294,,9991,35,1,0,False,3,,
702.213,1.5105421169998863,-0.002197265625,1.009765625,-0.01806640625,-2.6564885496183206,-0.33587786259541985,0.8549618320610687,-27303,-7,-42,0.197265625,-0.2062744927241641,0.09193612378410575,False,,False,,-27310,,10007,35,1,0,False,3,,
702.218,1.5155434719999903,-0.00244140625,1.0087890625,-0.017578125,-2.5038167938931295,-0.2748091603053435,0.916030534351145,-27303,-4,-46,0.197265625,-0.20065314498255343,0.1006919450968777,False,,False,,-27310,,10007,34,1,1,False,3,,
702.2230000000001,1.5205458279999675,-0.001708984375,1.008544921875,-0.015869140625,-2.595419847328244,-0.33587786259541985,0.8854961832061068,-27302,0,-9,0.197265625,-0.09267174553616142,0.019700597953736944,False,,False,,-27310,,10008,34,1,0,False,3,,
702.2280000000001,1.525547498999913,0.007080078125,1.008056640625,-0.015869140625,-2.595419847328244,-0.3969465648854962,0.6717557251908397,-27300,3,0,0.197265625,-0.01597306674730467,-0.0,False,,False,,-27310,,10010,34,1,1,False,3,,
702.2330000000001,1.5305496139999377,0.0029296875,1.001953125,-0.01806640625,-2.5038167938931295,-0.21374045801526717,0.7022900763358778,-27302,-3,-35,0.197265625,0.034500920615582256,0.07661343648675478,False,,False,,-27310,,10008,34,1,1,False,3,,
702.238,1.5355512849998831,-0.00390625,1.010498046875,-0.01611328125,-2.5343511450381677,-0.366412213740458,0.7938931297709924,-27303,-1,-41,0.197265625,0.06410091163856951,0.08974716845591274,False,,False,,-27310,,10007,34,1,1,False,3,,
702.243,1.5405526409999766,-0.0009765625,0.99951171875,-0.015869140625,-2.5038167938931295,-0.24427480916030533,0.6106870229007634,-27303,8,-47,0.197265625,0.07793546324190607,0.10288090042507071,False,,False,,-27310,,10007,34,1,0,False,3,,
702.248,1.5455536449999272,0.000732421875,1.003173828125,-0.0185546875,-2.564885496183206,-0.183206106870229,0.8244274809160305,-27302,-8,-44,0.197265625,0.08054744859622932,0.09631403444049173,False,,False,,-27310,,10008,34,1,0,False,3,,
702.253,1.550555796999788,-0.00244140625,1.0048828125,-0.01611328125,-2.5038167938931295,-0.2748091603053435,0.7938931297709924,-27302,3,-45,0.197265625,0.07575199399891802,0.09850298976868473,False,,False,,-27310,,10008,34,1,1,False,3,,
702.258,1.5555576709998604,0.003173828125,1.004150390625,-0.01513671875,-2.2900763358778624,-0.15267175572519084,0.8549618320610687,-27302,7,-43,0.197265625,0.06659100186645439,0.09412507911229873,False,,False,,-27310,,10008,34,1,0,False,3,,
702.263,1.5605603229998906,0.00439453125,1.0048828125,-0.0146484375,-2.564885496183206,-0.183206106870229,0.8244274809160305,-27302,-1,-44,0.197265625,0.05536609973708131,0.09631403444049173,False,,False,,-27310,,10008,34,1,1,False,3,,
702.268,1.565562086,-0.001708984375,1.005126953125,-0.01416015625,-2.5038167938931295,-0.33587786259541985,0.732824427480916,-27303,-3,-46,0.17529296875,-0.04453773656885568,0.10069737027793281,False,,False,,-27294,,9991,34,1,0,False,3,,
702.273,1.5705644979998397,-0.000244140625,1.00830078125,-0.01513671875,-2.351145038167939,-0.24427480916030533,0.732824427480916,-27302,5,-48,0.21923828125,-0.10503334506185993,0.10506417593288513,False,,False,,-27327,,10025,34,1,0,False,3,,
702.278,1.5755653909998273,-0.002197265625,1.00341796875,-0.015380859375,-2.3206106870229006,-0.183206106870229,0.732824427480916,-27301,2,-48,0.197265625,0.04111935080102154,0.1050698557532637,False,,False,,-27310,,10009,34,1,0,False,3,,
702.283,1.5805672279998362,0.00048828125,1.006103515625,-0.015380859375,-2.2900763358778624,-0.12213740458015267,0.732824427480916,-27301,8,-4,0.1533203125,-0.04496260788602083,0.008756763253719923,False,,False,,-27277,,9976,34,1,0,False,3,,
702.288,1.5855687879998186,0.0078125,1.008544921875,-0.01220703125,-2.381679389312977,0.061068702290076333,0.2748091603053435,-27302,-10,-46,0.197265625,-0.36133033525692326,0.1006919450968777,False,,False,,-27310,,10008,34,1,1,False,3,,
702.293,1.590570643999854,-0.0029296875,1.006591796875,-0.01513671875,-2.381679389312977,-0.15267175572519084,0.8854961832061068,-27305,-5,-81,0.1533203125,-0.5352063469484122,0.17732445588782844,False,,False,,-27277,,9972,34,1,0,False,3,,
702.298,1.5955726849999792,-0.0126953125,1.013671875,-0.0146484375,-2.259541984732824,-0.24427480916030533,0.6412213740458015,-27299,34,64,0.197265625,-0.6037270156058593,-0.1400931410043516,False,,False,,-27310,,10011,34,1,1,False,3,,
702.303,1.6005747069998506,-0.001220703125,0.998046875,-0.017333984375,-2.2900763358778624,-0.061068702290076333,0.7022900763358778,-27293,20,27,0.1533203125,-0.5991733704164347,-0.05910815196260948,False,,False,,-27277,,9984,34,1,0,False,3,,
702.308,1.605576784999812,-0.0029296875,1.005126953125,-0.018310546875,-1.8931297709923662,-0.030534351145038167,0.8549618320610687,-27295,-8,7,0.1533203125,-0.7246331668871344,-0.015324335694009863,False,,False,,-27277,,9982,34,1,1,False,3,,
702.313,1.6105787709998367,-0.005615234375,1.010986328125,-0.016845703125,-2.2900763358778624,-0.061068702290076333,0.5801526717557252,-27294,1,37,0.17529296875,-0.8351416867330014,-0.08099571087572856,False,,False,,-27294,,10000,34,1,1,False,3,,
702.318,1.6155807189998086,-0.004150390625,0.998046875,-0.01953125,-2.351145038167939,-0.15267175572519084,0.9770992366412213,-27295,1,23,0.1533203125,-0.750669695157149,-0.050351388708889555,False,,False,,-27277,,9982,34,1,1,False,3,,
702.323,1.6205833159999656,-0.01513671875,1.01513671875,-0.017578125,-2.229007633587786,-0.21374045801526717,0.7022900763358778,-27292,7,79,0.1533203125,-0.7244465353911068,-0.17294607426096847,False,,False,,-27277,,9985,34,1,1,False,3,,
702.328,1.6255849119997947,0.004150390625,1.01318359375,-0.01708984375,-2.2900763358778624,-0.12213740458015267,0.7633587786259541,-27293,-9,28,0.1533203125,-0.7376879507116635,-0.06129734277603945,False,,False,,-27277,,9984,34,1,1,False,3,,
702.333,1.6305864159999146,-0.002685546875,1.0029296875,-0.01708984375,-2.229007633587786,-0.3969465648854962,1.0381679389312977,-27293,3,39,0.1533203125,-0.6869193256477368,-0.08537844172376925,False,,False,,-27277,,9984,34,1,0,False,3,,
702.338,1.6355882349998865,-0.0048828125,1.010498046875,-0.01708984375,-2.259541984732824,-0.21374045801526717,0.8244274809160305,-27291,2,62,0.1533203125,-0.5991761821574999,-0.1357298304326588,False,,False,,-27277,,9986,34,1,1,False,3,,
702.343,1.6405898869998055,0.00146484375,1.00439453125,-0.01318359375,-2.229007633587786,-0.33587786259541985,0.916030534351145,-27292,0,57,0.1533203125,-0.4947680849114811,-0.12478387636550889,False,,False,,-27277,,9985,34,1,1,False,3,,
702.3480000000001,1.6455908909999835,-0.00341796875,1.005615234375,-0.014404296875,-2.381679389312977,-0.183206106870229,0.9770992366412213,-27291,4,63,0.1533203125,-0.3880593578819554,-0.1379190212460888,False,,False,,-27277,,9986,34,1,0,False,3,,
702.3530000000001,1.6505933209998602,-0.000244140625,1.002685546875,-0.018310546875,-2.1068702290076335,-0.3053435114503817,1.0687022900763359,-27292,4,59,0.1533203125,-0.2884473998975789,-0.12916225799236886,False,,False,,-27277,,9985,34,1,1,False,3,,
702.3580000000001,1.6555946589999166,-0.00146484375,1.00732421875,-0.01416015625,-2.381679389312977,-0.030534351145038167,1.0687022900763359,-27292,-1,61,0.1533203125,-0.20138913912261647,-0.13354063961922882,False,,False,,-27277,,9985,34,1,1,False,3,,
702.363,1.660596811000005,-0.000244140625,1.001708984375,-0.015625,-2.259541984732824,-0.183206106870229,0.8854961832061068,-27291,2,63,0.1533203125,-0.1293759028673327,-0.1379190212460888,False,,False,,-27277,,9986,34,1,1,False,3,,
702.368,1.6655986289999873,0.00146484375,1.002685546875,-0.015625,-2.2900763358778624,-0.24427480916030533,1.129770992366412,-27292,0,62,0.1533203125,-0.0727968888245657,-0.1357298304326588,False,,False,,-27277,,9985,34,1,0,False,3,,
702.373,1.6706007450000016,-0.00244140625,1.0087890625,-0.01416015625,-2.0763358778625953,-0.12213740458015267,1.0381679389312977,-27292,-3,64,0.13134765625,-0.11891880260283307,-0.14011570985092028,False,,False,,-27260,,9968,34,1,1,False,3,,
702.378,1.6756023229997936,-0.0009765625,1.001220703125,-0.0166015625,-2.1068702290076335,-0.21374045801526717,1.099236641221374,-27291,-3,62,0.13134765625,-0.31545995895652007,-0.135737093918079,False,,False,,-27260,,9969,34,1,1,False,3,,
702.383,1.6806047529998978,-0.000244140625,1.006591796875,-0.015869140625,-2.0763358778625953,-0.183206106870229,1.099236641221374,-27292,0,64,0.1533203125,-0.4161699411691897,-0.14010821205951876,False,,False,,-27277,,9985,34,1,0,False,3,,
702.388,1.6856062749998273,-0.002685546875,1.00390625,-0.013916015625,-2.1068702290076335,-0.24427480916030533,1.1603053435114503,-27290,9,131,0.1533203125,-0.2708141157433259,-0.28678399655932746,False,,False,,-27277,,9987,34,1,1,False,3,,
702.393,1.690608500999815,-0.00048828125,1.0029296875,-0.014404296875,-2.1068702290076335,-0.0916030534351145,1.0687022900763359,-27285,24,196,0.13134765625,-0.15583449799513427,-0.4291043614184433,False,,False,,-27260,,9975,34,1,0,False,3,,
702.398,1.6956096719998186,0.004150390625,1.00732421875,-0.015625,-2.0763358778625953,-0.15267175572519084,0.7938931297709924,-27280,16,88,0.1533203125,-0.15783039612123484,-0.1926487915818383,False,,False,,-27277,,9997,34,1,1,False,3,,
702.403,1.7006119909999597,0.00732421875,1.006103515625,-0.013427734375,-1.9236641221374045,0.061068702290076333,0.9770992366412213,-27285,-21,29,0.13134765625,-0.14643140628442758,-0.06348993102619825,False,,False,,-27260,,9975,34,1,1,False,3,,
702.408,1.7056132909999633,-0.006103515625,1.009521484375,-0.015869140625,-2.1374045801526718,-0.33587786259541985,0.8549618320610687,-27282,9,92,0.1533203125,-0.12735730477032192,-0.20140555483555822,False,,False,,-27277,,9995,34,1,1,False,3,,
702.413,1.710615627999914,0.007080078125,1.00146484375,-0.01708984375,-1.984732824427481,-0.21374045801526717,0.7938931297709924,-27281,9,68,0.13134765625,-0.10489304719128402,-0.14887294171660279,False,,False,,-27260,,9979,34,1,0,False,3,,
702.418,1.7156171879998965,0.001220703125,1.00927734375,-0.015869140625,-1.9541984732824427,-0.24427480916030533,1.2213740458015268,-27282,-4,80,0.1533203125,-0.08205913939410032,-0.17513526507439844,False,,False,,-27277,,9995,34,1,0,False,3,,
702.423,1.720618987999842,-0.01171875,1.00830078125,-0.017333984375,-1.7099236641221374,-0.12213740458015267,0.6412213740458015,-27282,5,77,0.13134765625,-0.060822482731166846,-0.16857671341438846,False,,False,,-27260,,9978,34,1,1,False,3,,
702.428,1.7256211219998931,-0.0048828125,1.01123046875,-0.02001953125,-1.984732824427481,-0.21374045801526717,0.9465648854961831,-27282,1,75,0.13134765625,-0.1305732172735227,-0.16419809748154718,False,,False,,-27260,,9978,34,1,1,False,3,,
702.433,1.7306233669999074,0.004150390625,1.003173828125,-0.02001953125,-1.8625954198473282,-0.24427480916030533,0.7633587786259541,-27282,11,83,0.13134765625,-0.2530755371084905,-0.18171256121291224,False,,False,,-27260,,9978,34,1,1,False,3,,
702.438,1.7356248709998,0.005859375,1.003662109375,-0.016845703125,-1.83206106870229,-0.0916030534351145,1.0381679389312977,-27284,-9,79,0.13134765625,-0.31131215424183095,-0.1729553293472297,False,,False,,-27260,,9976,34,1,0,False,3,,
702.443,1.7406273560000045,-0.009765625,1.013671875,-0.01513671875,-1.7404580152671756,-0.12213740458015267,0.732824427480916,-27280,15,138,0.1533203125,-0.23539653744150468,-0.30210833225333733,False,,False,,-27277,,9997,34,1,0,False,3,,
702.448,1.74562915599995,-0.000732421875,1.012939453125,-0.01416015625,-1.9541984732824427,-0.21374045801526717,0.7938931297709924,-27279,5,137,0.1533203125,0.00871623416628306,-0.29991914143990733,False,,False,,-27277,,9998,34,1,0,False,3,,
702.453,1.7506309569998848,-0.0009765625,1.001953125,-0.0185546875,-1.8015267175572518,-0.2748091603053435,0.8244274809160305,-27281,-8,150,0.1533203125,0.2528351080051938,-0.3283786220144971,False,,False,,-27277,,9996,34,1,0,False,3,,
702.458,1.7556328129999201,-0.000244140625,1.0107421875,-0.016357421875,-1.83206106870229,-0.183206106870229,0.7938931297709924,-27282,-8,95,0.1533203125,0.3890900036045189,-0.20797312727584819,False,,False,,-27277,,9995,34,1,1,False,3,,
702.463,1.7606354279998868,-0.00048828125,1.0029296875,-0.017333984375,-1.984732824427481,-0.366412213740458,0.8244274809160305,-27282,-7,34,0.13134765625,0.356963365768759,-0.07443647085830139,False,,False,,-27260,,9978,34,1,0,False,3,,
702.468,1.7656369499998164,-0.003173828125,1.006591796875,-0.0166015625,-1.8931297709923662,-0.21374045801526717,0.8854961832061068,-27283,7,22,0.13134765625,0.13116883895475429,-0.048164775261253845,False,,False,,-27260,,9977,34,1,1,False,3,,
702.4730000000001,1.7706391019999046,-0.000732421875,1.00634765625,-0.01806640625,-2.015267175572519,-0.3969465648854962,0.8549618320610687,-27283,2,27,0.13134765625,-0.11243905265301363,-0.05911131509335699,False,,False,,-27260,,9977,34,1,0,False,3,,
702.4780000000001,1.7756402179998076,-0.001220703125,1.00244140625,-0.014892578125,-1.8931297709923662,-0.24427480916030533,1.0076335877862594,-27281,6,86,0.13134765625,-0.25964473022611945,-0.1882804851121741,False,,False,,-27260,,9979,34,1,1,False,3,,
702.4830000000001,1.7806420729998536,-0.001708984375,1.003662109375,-0.01513671875,-1.9541984732824427,-0.33587786259541985,0.8244274809160305,-27278,15,136,0.13134765625,-0.33319715781262793,-0.29774588343320557,False,,False,,-27260,,9982,34,1,0,False,3,,
702.488,1.785643243999857,0.002685546875,1.00537109375,-0.015869140625,-1.9236641221374045,-0.15267175572519084,0.9465648854961831,-27279,4,136,0.13134765625,-0.3536032390718739,-0.29774588343320557,False,,False,,-27260,,9981,34,1,1,False,3,,
702.493,1.7906457669998872,-0.00244140625,1.00830078125,-0.01806640625,-1.8625954198473282,-0.15267175572519084,0.8854961832061068,-27281,0,152,0.13134765625,-0.3382845382133405,-0.33277481089593564,False,,False,,-27260,,9979,34,1,1,False,3,,
702.498,1.7956476409999595,-0.00244140625,1.0029296875,-0.017333984375,-1.9541984732824427,-0.061068702290076333,0.916030534351145,-27279,0,134,0.13134765625,-0.30128429767404075,-0.2933672675003643,False,,False,,-27260,,9981,34,1,0,False,3,,
702.503,1.8006494969999949,-0.00146484375,1.007080078125,-0.018798828125,-1.9236641221374045,-0.24427480916030533,0.916030534351145,-27281,-10,135,0.13134765625,-0.2533509257398835,-0.29555657546678493,False,,False,,-27260,,9979,34,1,0,False,3,,
702.508,1.8056509269999879,-0.00146484375,1.0087890625,-0.015380859375,-1.9541984732824427,-0.21374045801526717,0.916030534351145,-27280,-3,133,0.13134765625,-0.20225622689496486,-0.2911779595339437,False,,False,,-27260,,9980,34,1,0,False,3,,
702.513,1.8106533199998012,-0.000732421875,1.007080078125,-0.017578125,-1.8625954198473282,-0.030534351145038167,0.8854961832061068,-27279,-3,135,0.13134765625,-0.1532386202347098,-0.29555657546678493,False,,False,,-27260,,9981,34,1,1,False,3,,
702.518,1.8156548609999845,-0.001953125,1.0078125,-0.01953125,-2.015267175572519,-0.24427480916030533,0.8244274809160305,-27279,-4,137,0.13134765625,-0.10949091389633853,-0.2999351913996262,False,,False,,-27260,,9981,34,1,1,False,3,,
702.523,1.8206570679999459,-0.0009765625,1.007568359375,-0.017333984375,-2.015267175572519,-0.3053435114503817,0.916030534351145,-27279,0,135,0.13134765625,-0.07263747095077454,-0.29555657546678493,False,,False,,-27260,,9981,34,1,1,False,3,,
702.528,1.8256582209999124,-0.002685546875,1.00634765625,-0.016845703125,-1.7709923664122136,-0.061068702290076333,1.0076335877862594,-27279,2,145,0.13134765625,-0.043166239103863704,-0.31744965513099127,False,,False,,-27260,,9981,34,1,0,False,3,,
702.533,1.830660724999916,0.0,1.007568359375,-0.019287109375,-2.0763358778625953,-0.061068702290076333,1.0076335877862594,-27279,-6,138,0.13134765625,-0.02079712579057623,-0.30212449936604685,False,,False,,-27260,,9981,34,1,0,False,3,,
702.538,1.835662265999872,-0.006103515625,1.00634765625,-0.017333984375,-1.9236641221374045,-0.2748091603053435,0.8854961832061068,-27279,3,147,0.13134765625,-0.004779955442367284,-0.3218282710638325,False,,False,,-27260,,9981,34,1,1,False,3,,
702.543,1.8406642329998704,0.001220703125,1.00390625,-0.01953125,-1.9541984732824427,-0.12213740458015267,1.0687022900763359,-27279,0,139,0.13134765625,0.005876671765905329,-0.30431380733246743,False,,False,,-27260,,9981,34,1,0,False,3,,
702.548,1.8456653480000114,-0.003662109375,1.005859375,-0.01611328125,-1.9236641221374045,-0.21374045801526717,1.2519083969465647,-27279,-5,139,0.13134765625,0.012239222626934821,-0.30431380733246743,False,,False,,-27260,,9981,34,1,1,False,3,,
702.553,1.8506673889999092,-0.001708984375,1.005126953125,-0.017578125,-1.8625954198473282,-0.21374045801526717,1.1603053435114503,-27280,4,144,0.13134765625,0.015336635278671566,-0.31526034716457063,False,,False,,-27260,,9980,34,1,0,False,3,,
702.558,1.8556692259999181,0.001220703125,1.006591796875,-0.01708984375,-1.8625954198473282,-0.12213740458015267,1.129770992366412,-27281,-9,138,0.13134765625,0.016091120635555727,-0.30212449936604685,False,,False,,-27260,,9979,34,1,1,False,3,,
702.563,1.860671340999943,-0.0029296875,1.007080078125,-0.021240234375,-1.6793893129770991,-0.15267175572519084,1.1908396946564885,-27279,3,149,0.13134765625,0.01528235554738854,-0.3262068869966738,False,,False,,-27260,,9981,34,1,0,False,3,,
702.568,1.8656726409999465,-0.000732421875,1.0078125,-0.019287109375,-2.015267175572519,-0.21374045801526717,1.2213740458015268,-27279,7,144,0.13134765625,0.013535968281603434,-0.31526034716457063,False,,False,,-27260,,9981,34,1,0,False,3,,
702.573,1.8706750529997862,-0.00341796875,1.00537109375,-0.01708984375,-1.9236641221374045,-0.15267175572519084,1.1908396946564885,-27280,1,151,0.13134765625,0.011328528925587973,-0.330585502929515,False,,False,,-27260,,9980,34,1,1,False,3,,
702.578,1.8756764089998796,0.00048828125,1.003173828125,-0.01806640625,-1.8931297709923662,-0.12213740458015267,1.0687022900763359,-27279,-7,139,0.13134765625,0.009002724348569363,-0.30431380733246743,False,,False,,-27260,,9981,34,1,1,False,3,,
702.583,1.880678615999841,-0.002197265625,1.007080078125,-0.019287109375,-1.8015267175572518,-0.3053435114503817,1.1603053435114503,-27281,-7,136,0.13134765625,0.0067878459892125815,-0.29774588343320557,False,,False,,-27260,,9979,34,1,1,False,3,,
702.588,1.885680045999834,-0.002197265625,1.0068359375,-0.0166015625,-1.8625954198473282,-0.0916030534351145,1.1908396946564885,-27281,0,146,0.13134765625,0.004822039177249013,-0.31963896309741185,False,,False,,-27260,,9979,34,1,0,False,3,,
702.593,1.8906818839998323,-0.001220703125,1.006103515625,-0.02099609375,-1.7099236641221374,-0.15267175572519084,1.3129770992366412,-27280,-8,140,0.13134765625,0.003173894852625583,-0.3065031152988881,False,,False,,-27260,,9980,34,1,0,False,3,,
702.5980000000001,1.89568277699982,-0.005126953125,1.009521484375,-0.017578125,-1.8015267175572518,0.0,1.1908396946564885,-27280,4,146,0.13134765625,0.0018618849927369103,-0.31963896309741185,False,,False,,-27260,,9980,34,1,0,False,3,,
702.6030000000001,1.9006848359999822,0.001953125,1.00390625,-0.018798828125,-2.015267175572519,-0.061068702290076333,1.2519083969465647,-27279,-3,134,0.13134765625,0.0008708537833600058,-0.2933672675003643,False,,False,,-27260,,9981,34,1,1,False,3,,
702.6080000000001,1.9056864509998377,-0.0009765625,1.00537109375,-0.016845703125,-1.9541984732824427,-0.24427480916030533,1.2213740458015268,-27279,-1,136,0.13134765625,0.00016529569342629944,-0.29774588343320557,False,,False,,-27260,,9981,34,1,0,False,3,,
702.613,1.9106888259998414,-0.00244140625,1.005615234375,-0.015625,-1.8015267175572518,-0.15267175572519084,1.1908396946564885,-27279,4,147,0.13134765625,-0.0003004938480907201,-0.3218282710638325,False,,False,,-27260,,9981,34,1,0,False,3,,
702.618,1.9156900699999824,0.00048828125,1.005126953125,-0.018310546875,-1.8931297709923662,-0.183206106870229,1.3129770992366412,-27278,1,148,0.13134765625,-0.0005750889757497777,-0.32401757903025313,False,,False,,-27260,,9982,34,1,1,False,3,,
702.623,1.9206915190000018,-0.00244140625,1.005615234375,-0.017578125,-1.8015267175572518,-0.0916030534351145,1.1603053435114503,-27280,-1,150,0.13134765625,-0.0007050020946893048,-0.32839619496309436,False,,False,,-27260,,9980,34,1,0,False,3,,
702.628,1.9256925779998255,0.003173828125,1.00048828125,-0.016845703125,-1.618320610687023,-0.030534351145038167,1.282442748091603,-27280,-1,139,0.13134765625,-0.0007316868141703059,-0.30431380733246743,False,,False,,-27260,,9980,34,1,1,False,3,,
702.633,1.9306942679997974,-0.001708984375,1.006103515625,-0.0146484375,-1.8625954198473282,-0.12213740458015267,1.3129770992366412,-27279,1,146,0.13134765625,-0.0006900221649820993,-0.31963896309741185,False,,False,,-27260,,9981,34,1,0,False,3,,
702.638,1.9356954379998115,0.0,1.00390625,-0.017822265625,-1.7404580152671756,-0.061068702290076333,1.3740458015267174,-27280,1,148,0.13134765625,-0.0006078686085956382,-0.32401757903025313,False,,False,,-27260,,9980,34,1,1,False,3,,
702.643,1.9406976269999632,-0.0009765625,1.006591796875,-0.0166015625,-1.5267175572519083,-0.0916030534351145,1.2213740458015268,-27280,5,151,0.13134765625,-0.0005063471089245442,-0.330585502929515,False,,False,,-27260,,9980,34,1,1,False,3,,
702.648,1.9456987799999297,0.0,1.00439453125,-0.0205078125,-1.5877862595419847,-0.0916030534351145,1.1908396946564885,-27279,0,148,0.13134765625,-0.00040055952260092525,-0.32401757903025313,False,,False,,-27260,,9981,34,1,0,False,3,,
702.653,1.950701097999854,0.000244140625,1.009765625,-0.020263671875,-1.648854961832061,-0.21374045801526717,1.3129770992366412,-27281,-7,139,0.13134765625,-0.0003005341581143938,-0.30431380733246743,False,,False,,-27260,,9979,34,1,1,False,3,,
702.658,1.9557022139999845,-0.006591796875,1.00634765625,-0.01953125,-1.618320610687023,-0.24427480916030533,1.3435114503816794,-27279,3,149,0.13134765625,-0.00021223978730841315,-0.3262068869966738,False,,False,,-27260,,9981,34,1,0,False,3,,
702.663,1.9607051059999776,0.000244140625,1.0068359375,-0.01953125,-1.6793893129770991,-0.061068702290076333,1.5267175572519083,-27280,0,137,0.13134765625,-0.00013856209984703147,-0.2999351913996262,False,,False,,-27260,,9980,34,1,0,False,3,,
702.668,1.965706702999796,-0.00146484375,1.007080078125,-0.018798828125,-1.6793893129770991,0.12213740458015267,1.3435114503816794,-27280,-1,130,0.13134765625,-8.017762845485921e-05,-0.2846100356346818,False,,False,,-27260,,9980,34,1,0,False,3,,
702.673,1.9707085589998314,0.0009765625,1.005615234375,-0.018310546875,-1.83206106870229,-0.183206106870229,1.2519083969465647,-27280,1,142,0.13134765625,-3.6291711439489984e-05,-0.31088173123172935,False,,False,,-27260,,9980,34,1,0,False,3,,
702.678,1.975709747999872,0.0009765625,1.00830078125,-0.0234375,-1.618320610687023,-0.0916030534351145,1.4351145038167938,-27279,0,137,0.13134765625,-5.229972231455777e-06,-0.2999351913996262,False,,False,,-27260,,9981,34,1,1,False,3,,
702.683,1.9807120849998228,-0.0048828125,1.005859375,-0.023193359375,-1.7099236641221374,-0.21374045801526717,1.5267175572519083,-27280,-3,139,0.13134765625,1.5111663761219873e-05,-0.30431380733246743,False,,False,,-27260,,9980,34,1,1,False,3,,
702.688,1.985714051999821,0.0,1.00537109375,-0.021728515625,-1.8625954198473282,-0.21374045801526717,1.3740458015267174,-27279,2,144,0.13134765625,2.6943831021329397e-05,-0.31526034716457063,False,,False,,-27260,,9981,34,1,1,False,3,,
702.693,1.9907165189999887,0.005126953125,1.0087890625,-0.018310546875,-1.618320610687023,-0.183206106870229,1.5572519083969465,-27280,-2,138,0.13134765625,3.236791845974821e-05,-0.30212449936604685,False,,False,,-27260,,9980,34,1,1,False,3,,
702.698,1.9957176159998653,-0.003662109375,1.009521484375,-0.0146484375,-1.7404580152671756,-0.061068702290076333,1.4351145038167938,-27279,4,149,0.13134765625,3.3246438325018005e-05,-0.3262068869966738,False,,False,,-27260,,9981,34,1,1,False,3,,
702.703,2.000720026999943,0.002197265625,1.0078125,-0.0205078125,-1.7404580152671756,-0.21374045801526717,1.3129770992366412,-27280,-2,136,0.13134765625,3.1139076893465554e-05,-0.29774588343320557,False,,False,,-27260,,9980,34,1,0,False,3,,
702.708,2.0057220129999678,0.003662109375,1.010009765625,-0.018798828125,-1.6793893129770991,0.030534351145038167,1.4351145038167938,-27280,-9,137,0.13134765625,2.7286007539761996e-05,-0.2999351913996262,False,,False,,-27260,,9980,34,1,1,False,3,,
702.713,2.0107241279999926,-0.000244140625,1.005859375,-0.021484375,-1.5267175572519083,-0.0916030534351145,1.282442748091603,-27280,0,143,0.13134765625,2.2622856126686303e-05,-0.31307103919815,False,,False,,-27260,,9980,34,1,1,False,3,,
702.718,2.0157261689998904,0.008544921875,1.0107421875,-0.020751953125,-1.7099236641221374,-0.366412213740458,1.3740458015267174,-27279,0,136,0.13134765625,1.7814764436919722e-05,-0.29774588343320557,False,,False,,-27260,,9981,34,1,0,False,3,,
702.7280000000001,2.0207278209998094,0.00537109375,1.00537109375,-0.02099609375,-1.7709923664122136,-0.0916030534351145,1.3435114503816794,-27280,3,146,0.13134765625,1.3299965730058265e-05,-0.31963896309741185,False,,False,,-27260,,9980,34,1,1,False,3,,
702.7330000000001,2.025729824999871,0.00244140625,1.00830078125,-0.0205078125,-1.7099236641221374,-0.15267175572519084,1.282442748091603,-27279,-5,140,0.13134765625,9.335960340399406e-06,-0.3065031152988881,False,,False,,-27260,,9981,34,1,0,False,3,,
702.738,2.0307321989998854,-0.001220703125,1.00390625,-0.023193359375,-1.7404580152671756,-0.183206106870229,1.099236641221374,-27280,-1,147,0.13134765625,6.043649369236351e-06,-0.3218282710638325,False,,False,,-27260,,9980,34,1,1,False,3,,
702.748,2.040735836999829,0.000244140625,1.009033203125,-0.02099609375,-1.648854961832061,-0.24427480916030533,0.9465648854961831,-27280,0,149,0.13134765625,3.446613385619984e-06,-0.3262068869966738,False,,False,,-27260,,9980,34,1,0,False,3,,
702.753,2.045736841000007,0.004638671875,1.004150390625,-0.02294921875,-1.8931297709923662,-0.15267175572519084,1.1603053435114503,-27278,8,145,0.109375,-0.08825547345520361,-0.3174665850606156,False,,False,,-27244,,9966,34,1,0,False,3,,
702.758,2.050738992999868,0.00048828125,1.0078125,-0.018310546875,-1.7404580152671756,-0.21374045801526717,1.0076335877862594,-27281,-7,140,0.13134765625,-0.22602757741989965,-0.3065031152988881,False,,False,,-27260,,9979,34,1,0,False,3,,
702.763,2.0557408309998664,0.00048828125,1.005859375,-0.02099609375,-1.8015267175572518,-0.15267175572519084,1.2213740458015268,-27278,13,171,0.13134765625,-0.20797337276223596,-0.37437166225792756,False,,False,,-27260,,9982,34,1,0,False,3,,
702.773,2.0657439309998153,-0.005859375,1.014404296875,-0.018310546875,-1.8931297709923662,0.0,1.0687022900763359,-27280,0,132,0.13134765625,-0.09143008216823312,-0.28898865156752307,False,,False,,-27260,,9980,34,1,1,False,3,,
702.778,2.070745934999877,-0.001708984375,1.00244140625,-0.023681640625,-2.015267175572519,-0.366412213740458,1.099236641221374,-27278,7,143,0.13134765625,-0.00933996844047788,-0.31307103919815,False,,False,,-27260,,9982,34,1,0,False,3,,
702.783,2.0757475129998966,0.003173828125,1.005126953125,-0.02099609375,-1.8015267175572518,-0.2748091603053435,1.0076335877862594,-27278,3,124,0.13134765625,0.044058964260331464,-0.271474187836158,False,,False,,-27260,,9982,34,1,1,False,3,,
702.788,2.080749461999858,-0.0048828125,1.008056640625,-0.020751953125,-1.8931297709923662,-0.183206106870229,1.0076335877862594,-27279,-3,128,0.13134765625,0.07476704273614482,-0.28023141970184057,False,,False,,-27260,,9981,34,1,0,False,3,,
702.793,2.0857509839997874,0.000732421875,1.00341796875,-0.023193359375,-1.8625954198473282,-0.2748091603053435,0.8244274809160305,-27279,2,130,0.13134765625,0.08845542069170005,-0.2846100356346818,False,,False,,-27260,,9981,34,1,1,False,3,,
702.798,2.090752876999886,0.001953125,1.00634765625,-0.02099609375,-2.0763358778625953,-0.3053435114503817,1.129770992366412,-27280,-5,126,0.13134765625,0.09012855274745862,-0.2758528037689993,False,,False,,-27260,,9980,34,1,1,False,3,,
702.803,2.0957547329999215,-0.0029296875,1.002197265625,-0.01806640625,-1.83206106870229,-0.21374045801526717,1.129770992366412,-27280,-1,134,0.109375,-0.004295697702789647,-0.29338291309049985,False,,False,,-27244,,9964,34,1,1,False,3,,
702.808,2.100756810999883,-0.001953125,1.00537109375,-0.02099609375,-2.045801526717557,-0.21374045801526717,1.099236641221374,-27280,-5,131,0.13134765625,-0.15276672526689544,-0.28679934360110243,False,,False,,-27260,,9980,34,1,1,False,3,,
702.813,2.1057585739999922,-0.00537109375,1.005859375,-0.0205078125,-1.8625954198473282,-0.183206106870229,1.1908396946564885,-27277,13,170,0.13134765625,-0.1474595896166112,-0.372182354291507,False,,False,,-27260,,9983,34,1,1,False,3,,
702.818,2.1107603009998,0.0,1.006103515625,-0.019287109375,-1.9236641221374045,-0.21374045801526717,1.129770992366412,-27279,-2,147,0.13134765625,-0.043952933050564996,-0.3218282710638325,False,,False,,-27260,,9981,34,1,1,False,3,,
702.823,2.115762211999936,-0.003173828125,1.00439453125,-0.023193359375,-1.8931297709923662,-0.0916030534351145,1.3129770992366412,-27280,-7,122,0.13134765625,0.02596211162555989,-0.2670955719033168,False,,False,,-27260,,9980,34,1,0,False,3,,
702.828,2.1207648089998656,0.001708984375,1.006591796875,-0.019775390625,-1.9541984732824427,-0.3969465648854962,1.1603053435114503,-27278,6,142,0.08740234375,-0.10779734840678491,-0.31091483428419875,False,,False,,-27227,,9949,34,1,1,False,3,,
702.833,2.125767071999917,-0.000244140625,1.0078125,-0.020263671875,-1.9541984732824427,-0.030534351145038167,1.2519083969465647,-27280,-10,120,0.13134765625,-0.3614384047630148,-0.2627169559704755,False,,False,,-27260,,9980,34,1,0,False,3,,
702.843,2.135770875999924,-0.00732421875,1.006591796875,-0.018310546875,-1.8931297709923662,-0.3969465648854962,1.3129770992366412,-27274,11,183,0.13134765625,-0.3185619327700631,-0.4006433578549751,False,,False,,-27260,,9986,34,1,0,False,3,,
702.8480000000001,2.1407730469998114,-0.010498046875,1.01220703125,-0.0205078125,-1.9236641221374045,0.0916030534351145,1.3129770992366412,-27279,-18,80,0.13134765625,-0.08895790335388926,-0.17514463731365032,False,,False,,-27260,,9981,34,1,0,False,3,,
702.8530000000001,2.145774642999868,-0.003662109375,0.99951171875,-0.022705078125,-1.8625954198473282,-0.3053435114503817,1.465648854961832,-27278,5,113,0.13134765625,0.06544529042791553,-0.2473918002055311,False,,False,,-27260,,9982,34,1,1,False,3,,
702.8580000000001,2.1507763139998133,-0.000732421875,1.010009765625,-0.018798828125,-1.8931297709923662,-0.0916030534351145,1.282442748091603,-27276,14,103,0.13134765625,0.1592145694723968,-0.2254987205413248,False,,False,,-27260,,9984,34,1,0,False,3,,
702.863,2.155777596000007,0.00537109375,1.0068359375,-0.0224609375,-1.9541984732824427,-0.3053435114503817,1.5572519083969465,-27278,-3,87,0.13134765625,0.2065633832026731,-0.19046979307859474,False,,False,,-27260,,9982,34,1,1,False,3,,
702.868,2.1607796739999685,-0.000732421875,1.00341796875,-0.0224609375,-1.8015267175572518,-0.2748091603053435,1.4961832061068703,-27279,-6,100,0.13134765625,0.22033666596562873,-0.21893079664206294,False,,False,,-27260,,9981,34,1,1,False,3,,
702.873,2.165781399999787,0.00048828125,1.005615234375,-0.01708984375,-1.8015267175572518,-0.12213740458015267,1.4351145038167938,-27277,-1,87,0.13134765625,0.21146977481060317,-0.19046979307859474,False,,False,,-27260,,9983,34,1,1,False,3,,
702.878,2.1707837929998277,0.000244140625,1.004638671875,-0.017333984375,-1.7709923664122136,-0.061068702290076333,1.5572519083969465,-27279,-6,80,0.13134765625,0.18879488135732742,-0.17514463731365032,False,,False,,-27260,,9981,34,1,0,False,3,,
702.883,2.1757856669999,-0.00439453125,1.00927734375,-0.01806640625,-1.6793893129770991,-0.21374045801526717,1.4045801526717556,-27277,9,107,0.13134765625,0.15908575708997325,-0.23425595240700733,False,,False,,-27260,,9983,34,1,1,False,3,,
702.888,2.1807880419999037,0.00830078125,1.006103515625,-0.0126953125,-1.6793893129770991,0.061068702290076333,1.4045801526717556,-27277,2,99,0.13134765625,0.1272518548839734,-0.2167414886756423,False,,False,,-27260,,9983,35,1,1,False,3,,
702.893,2.1857894349998332,-0.00537109375,1.006591796875,-0.015380859375,-1.4351145038167938,-0.183206106870229,1.4961832061068703,-27279,-6,83,0.13134765625,0.09661255066034616,-0.18171256121291224,False,,False,,-27260,,9981,35,1,0,False,3,,
702.898,2.1907912909998686,-0.004150390625,1.00537109375,-0.014892578125,-1.465648854961832,-0.15267175572519084,1.5877862595419847,-27276,13,107,0.13134765625,0.06920076507949881,-0.23425595240700733,False,,False,,-27260,,9984,34,1,1,False,3,,
702.903,2.195793479999793,0.005615234375,1.00244140625,-0.014892578125,-1.3129770992366412,-0.12213740458015267,1.3740458015267174,-27277,0,99,0.13134765625,0.04606103718665952,-0.2167414886756423,False,,False,,-27260,,9983,34,1,0,False,3,,
702.908,2.2007952609999393,-0.004150390625,1.0078125,-0.01708984375,-1.282442748091603,0.12213740458015267,1.4351145038167938,-27279,-6,85,0.13134765625,0.027520094520007914,-0.1860911771457535,False,,False,,-27260,,9981,34,1,1,False,3,,
702.913,2.205796413999906,0.002685546875,1.005126953125,-0.01904296875,-1.2519083969465647,-0.21374045801526717,1.3740458015267174,-27276,16,112,0.13134765625,0.01341804794928595,-0.24520249223911045,False,,False,,-27260,,9984,34,1,0,False,3,,
702.918,2.2107980289999887,0.00830078125,1.000732421875,-0.016845703125,-1.3129770992366412,0.21374045801526717,1.3740458015267174,-27278,-3,92,0.13134765625,0.0032957604428995382,-0.20141633291069788,False,,False,,-27260,,9982,34,1,0,False,3,,
702.923,2.2157999029998336,0.001708984375,1.00390625,-0.019775390625,-1.2213740458015268,-0.0916030534351145,1.5267175572519083,-27277,3,95,0.13134765625,-0.003460944065129515,-0.2079842568099598,False,,False,,-27260,,9983,34,1,0,False,3,,
702.928,2.220801665999943,0.0048828125,1.006591796875,-0.020751953125,-1.3435114503816794,-0.030534351145038167,1.4351145038167938,-27277,3,99,0.13134765625,-0.007516337274125285,-0.2167414886756423,False,,False,,-27260,,9983,34,1,0,False,3,,
702.933,2.225803299999825,-0.00390625,1.003662109375,-0.02490234375,-1.0687022900763359,-0.030534351145038167,1.5267175572519083,-27279,-7,83,0.13134765625,-0.009513456549422258,-0.18171256121291224,False,,False,,-27260,,9981,34,1,0,False,3,,
702.938,2.2308055819999026,-0.003173828125,1.004150390625,-0.02294921875,-1.2519083969465647,-0.030534351145038167,1.4045801526717556,-27278,1,75,0.13134765625,-0.01003006316567323,-0.16419809748154718,False,,False,,-27260,,9982,34,1,0,False,3,,
702.943,2.235806455999864,-0.0009765625,1.0048828125,-0.0234375,-1.099236641221374,0.030534351145038167,1.3740458015267174,-27278,-4,83,0.13134765625,-0.009555639912823124,-0.18171256121291224,False,,False,,-27260,,9982,34,1,1,False,3,,
702.948,2.2408083859997987,0.007568359375,1.008544921875,-0.0244140625,-1.0687022900763359,-0.061068702290076333,1.4351145038167938,-27276,4,90,0.13134765625,-0.008483730191640658,-0.19703771697785663,False,,False,,-27260,,9984,34,1,0,False,3,,
702.953,2.2458097789999556,-0.005615234375,1.006591796875,-0.0244140625,-1.2213740458015268,-0.183206106870229,1.5572519083969465,-27278,-4,91,0.13134765625,-0.00711473182415401,-0.19922702494427724,False,,False,,-27260,,9982,34,1,0,False,3,,
702.958,2.250811689999864,-0.001708984375,1.008544921875,-0.0234375,-1.3129770992366412,-0.061068702290076333,1.5267175572519083,-27277,4,90,0.13134765625,-0.005665171575104905,-0.19703771697785663,False,,False,,-27260,,9983,34,1,1,False,3,,
702.963,2.2558127499999046,0.002685546875,1.001220703125,-0.0244140625,-1.2213740458015268,-0.0916030534351145,1.8625954198473282,-27279,-12,79,0.13134765625,-0.004280391032962916,-0.1729553293472297,False,,False,,-27260,,9981,34,1,0,False,3,,
702.968,2.260815457999797,0.005126953125,1.005126953125,-0.023681640625,-1.0381679389312977,-0.2748091603053435,1.465648854961832,-27278,0,84,0.13134765625,-0.0030484012708969013,-0.18390186917933288,False,,False,,-27260,,9982,34,1,0,False,3,,
702.9730000000001,2.2658172209999066,0.0029296875,1.009521484375,-0.020751953125,-1.3740458015267174,-0.183206106870229,1.4961832061068703,-27278,0,80,0.13134765625,-0.002013374113685377,-0.17514463731365032,False,,False,,-27260,,9982,34,1,0,False,3,,
702.9780000000001,2.270819131999815,0.000244140625,1.002685546875,-0.021240234375,-1.1908396946564885,-0.24427480916030533,1.83206106870229,-27277,5,85,0.13134765625,-0.001187816541105766,-0.1860911771457535,False,,False,,-27260,,9983,34,1,1,False,3,,
702.9830000000001,2.275820728999861,-0.000732421875,1.004150390625,-0.020751953125,-1.129770992366412,-0.061068702290076333,1.618320610687023,-27277,7,83,0.109375,-0.0888199000840842,-0.18172225213814547,False,,False,,-27244,,9967,34,1,0,False,3,,
702.988,2.280822769999986,0.00341796875,1.0078125,-0.017822265625,-1.0687022900763359,0.061068702290076333,1.4961832061068703,-27278,2,82,0.13134765625,-0.22614463913368116,-0.1795232532464916,False,,False,,-27260,,9982,34,1,0,False,3,,
702.993,2.2858238669998627,0.00341796875,1.00439453125,-0.021728515625,-1.0381679389312977,-0.24427480916030533,1.83206106870229,-27277,7,127,0.13134765625,-0.20779411232687986,-0.27804211173541993,False,,False,,-27260,,9983,34,1,0,False,3,,
702.998,2.290825907999988,0.0078125,1.00732421875,-0.018798828125,-0.9770992366412213,-0.0916030534351145,1.3435114503816794,-27278,-9,128,0.13134765625,-0.0910751756781849,-0.28023141970184057,False,,False,,-27260,,9982,35,1,1,False,3,,
703.003,2.295827466999981,0.009033203125,0.9990234375,-0.0224609375,-0.9770992366412213,-0.15267175572519084,1.6793893129770991,-27280,-19,80,0.13134765625,-0.008900921950222157,-0.17514463731365032,False,,False,,-27260,,9980,35,1,0,False,3,,
703.008,2.300829285999953,0.004638671875,1.00146484375,-0.019775390625,-0.9465648854961831,-0.21374045801526717,1.4045801526717556,-27276,8,109,0.13134765625,0.044516703944478486,-0.2386345683398486,False,,False,,-27260,,9984,34,1,0,False,3,,
703.013,2.305830530999856,0.01171875,1.0048828125,-0.0166015625,-0.7938931297709924,-0.12213740458015267,1.465648854961832,-27277,2,86,0.13134765625,0.07519999951530534,-0.1882804851121741,False,,False,,-27260,,9983,34,1,0,False,3,,
703.018,2.310832978999997,0.0068359375,1.0009765625,-0.02001953125,-0.8244274809160305,-0.061068702290076333,1.4045801526717556,-27278,-3,97,0.13134765625,0.08883770199955242,-0.21236287274280102,False,,False,,-27260,,9982,34,1,0,False,3,,
703.023,2.3158343719999266,-0.00146484375,1.0048828125,-0.019775390625,-0.732824427480916,-0.183206106870229,1.4045801526717556,-27278,0,96,0.13134765625,0.09044762328282985,-0.2101735647763804,False,,False,,-27260,,9982,34,1,0,False,3,,
703.028,2.3208359870000095,0.003173828125,1.009521484375,-0.023193359375,-0.6717557251908397,0.061068702290076333,1.3435114503816794,-27277,-4,77,0.13134765625,0.08421417804279888,-0.16857671341438846,False,,False,,-27260,,9983,34,1,0,False,3,,
703.033,2.325837101999923,0.004150390625,1.005126953125,-0.027587890625,-0.9770992366412213,-0.030534351145038167,1.0381679389312977,-27277,7,98,0.13134765625,0.07345113185741503,-0.21455218070922166,False,,False,,-27260,,9983,34,1,0,False,3,,
703.038,2.330838902999858,0.00732421875,1.004150390625,-0.022705078125,-0.7633587786259541,-0.3053435114503817,1.099236641221374,-27278,1,90,0.13134765625,0.06064765190344432,-0.19703771697785663,False,,False,,-27260,,9982,34,1,0,False,3,,
703.043,2.3358403879999514,0.009765625,1.005126953125,-0.027587890625,-0.9770992366412213,-0.21374045801526717,1.3129770992366412,-27279,0,98,0.13134765625,0.04756408448732442,-0.21455218070922166,False,,False,,-27260,,9981,34,1,0,False,3,,
703.048,2.3408426329999656,0.0107421875,1.005615234375,-0.0283203125,-0.9465648854961831,-0.2748091603053435,1.129770992366412,-27277,1,105,0.13134765625,0.035351930815772245,-0.22987733647416608,False,,False,,-27260,,9983,34,1,0,False,3,,
703.053,2.3458442669998476,0.002685546875,1.006591796875,-0.022705078125,-0.8549618320610687,-0.21374045801526717,0.8854961832061068,-27277,-1,93,0.109375,-0.0635772733015489,-0.20361649938370516,False,,False,,-27244,,9967,34,1,0,False,3,,
703.058,2.3508465669999623,0.00537109375,1.006591796875,-0.0283203125,-0.9465648854961831,-0.2748091603053435,1.0381679389312977,-27277,6,100,0.109375,-0.2984322431902012,-0.21894247245559695,False,,False,,-27244,,9967,34,1,0,False,3,,
703.063,2.355847866999966,0.00048828125,1.007568359375,-0.02587890625,-0.8549618320610687,-0.366412213740458,0.8244274809160305,-27275,6,158,0.13134765625,-0.4250827440042054,-0.3459106586944594,False,,False,,-27260,,9985,34,1,0,False,3,,
703.068,2.360850333999906,0.0068359375,1.00390625,-0.025146484375,-1.0687022900763359,-0.21374045801526717,0.8549618320610687,-27275,1,185,0.13134765625,-0.2956479137711689,-0.4050219737878164,False,,False,,-27260,,9985,34,1,0,False,3,,
703.073,2.365851670999973,0.007568359375,1.004638671875,-0.02294921875,-0.7633587786259541,-0.21374045801526717,0.6106870229007634,-27276,-13,145,0.13134765625,-0.10062728822355976,-0.31744965513099127,False,,False,,-27260,,9984,34,1,0,False,3,,
703.078,2.370853193999892,0.00244140625,1.0068359375,-0.02587890625,-1.0381679389312977,-0.4580152671755725,1.1603053435114503,-27278,-2,108,0.13134765625,0.032533228384863416,-0.23644526037342797,False,,False,,-27260,,9982,34,1,0,False,3,,
703.083,2.3758548829998745,-0.00390625,1.009521484375,-0.0234375,-0.8549618320610687,-0.33587786259541985,0.549618320610687,-27276,14,119,0.13134765625,0.11532242364566656,-0.26052764800405487,False,,False,,-27260,,9984,34,1,0,False,3,,
703.088,2.3808571279998887,0.00439453125,1.0087890625,-0.02294921875,-0.9465648854961831,-0.21374045801526717,0.7938931297709924,-27278,-7,91,0.13134765625,0.15915515179342352,-0.19922702494427724,False,,False,,-27260,,9982,34,1,0,False,3,,
703.093,2.385859038999797,-0.009033203125,1.001708984375,-0.02880859375,-0.9465648854961831,-0.183206106870229,0.8549618320610687,-27278,4,106,0.13134765625,0.1744818550286671,-0.2320666444405867,False,,False,,-27260,,9982,34,1,0,False,3,,
703.0980000000001,2.390861431999838,0.00244140625,1.012939453125,-0.02587890625,-0.8854961832061068,-0.33587786259541985,0.5801526717557252,-27276,4,102,0.13134765625,0.17029492820649267,-0.22330941257490416,False,,False,,-27260,,9984,34,1,0,False,3,,
703.1030000000001,2.3958623989999523,-0.005126953125,1.002197265625,-0.050048828125,-0.0916030534351145,0.8549618320610687,-0.48854961832061067,-27278,-3,89,0.13134765625,0.15392925506174826,-0.19484840901143602,False,,False,,-27260,,9982,34,1,0,False,3,,
703.1080000000001,2.400865013999919,0.02734375,1.0166015625,-0.017333984375,-0.7633587786259541,-0.061068702290076333,0.7633587786259541,-27279,-6,95,0.08740234375,-0.04544651973706895,-0.208006403218302,False,,False,,-27227,,9948,34,1,0,False,3,,
703.113,2.4058663700000125,-0.0126953125,0.9921875,-0.01904296875,-1.1603053435114503,0.3969465648854962,0.42748091603053434,-27279,-8,85,0.08740234375,-0.5226935135864276,-0.18611099235321757,False,,False,,-27227,,9948,34,1,0,False,3,,
703.118,2.410868318999974,-0.024658203125,1.010498046875,-0.029296875,-1.3129770992366412,-0.061068702290076333,0.7938931297709924,-27275,15,169,0.109375,-0.8750438050566496,-0.3700127784499588,False,,False,,-27244,,9969,34,1,0,False,3,,
703.123,2.4158700629998293,-0.02685546875,1.012939453125,-0.0361328125,-0.9770992366412213,-0.0916030534351145,0.916030534351145,-27271,16,248,0.08740234375,-0.9424719303623225,-0.5430061894540936,False,,False,,-27227,,9956,34,1,0,False,3,,
703.128,2.4208718639999915,-0.011474609375,1.009033203125,-0.023681640625,-0.916030534351145,0.0916030534351145,1.3129770992366412,-27266,13,201,0.08740234375,-0.9982620065667368,-0.44009775838819687,False,,False,,-27227,,9961,34,1,0,False,3,,
703.133,2.4258733309998206,-0.01513671875,0.998291015625,-0.02685546875,-1.0381679389312977,-0.33587786259541985,1.9236641221374045,-27268,1,192,0.13134765625,-0.8655922369446349,-0.4203471295527608,False,,False,,-27260,,9992,34,1,0,False,3,,
703.138,2.430875371999946,-0.01318359375,1.011474609375,-0.018798828125,-0.8854961832061068,0.030534351145038167,1.5877862595419847,-27264,18,265,0.13134765625,-0.3579403445386258,-0.5801666111014668,False,,False,,-27260,,9996,34,1,0,False,3,,
703.143,2.4358765609999864,-0.00146484375,0.999755859375,-0.020751953125,-1.099236641221374,-0.24427480916030533,1.9236641221374045,-27259,15,132,0.08740234375,-0.0036024353880035054,-0.28901942341911435,False,,False,,-27227,,9968,34,1,0,False,3,,
703.148,2.440879343000006,-0.004150390625,1.00341796875,-0.01953125,-0.7938931297709924,0.24427480916030533,2.1374045801526718,-27262,-14,21,0.08740234375,-0.12908578656359762,-0.045980362816677285,False,,False,,-27227,,9965,34,1,0,False,3,,
703.153,2.44588032799993,-0.013427734375,1.007080078125,-0.020263671875,-0.3969465648854962,0.030534351145038167,2.3206106870229006,-27265,0,120,0.08740234375,-0.37570877383224116,-0.26274493038101304,False,,False,,-27227,,9962,34,1,0,False,3,,
703.158,2.4508827769998334,-0.018310546875,1.001220703125,-0.022216796875,-0.549618320610687,0.12213740458015267,2.16793893129771,-27257,30,197,0.13134765625,-0.32718486428075777,-0.43129366938486396,False,,False,,-27260,,10003,34,1,0,False,3,,
703.163,2.455884094999874,-0.00146484375,1.00439453125,-0.017333984375,-0.6412213740458015,-0.15267175572519084,2.5343511450381677,-27250,34,158,0.13134765625,0.08324782299708303,-0.3459106586944594,False,,False,,-27260,,10010,34,1,0,False,3,,
703.168,2.4608857480000097,0.009521484375,1.008056640625,-0.019775390625,-0.3969465648854962,0.0916030534351145,2.351145038167939,-27241,40,27,0.109375,0.42804884998230475,-0.059114467563011176,False,,False,,-27244,,10003,34,1,0,False,3,,
703.173,2.4658876399998917,0.0068359375,1.0009765625,-0.02392578125,-0.366412213740458,0.061068702290076333,2.4732824427480917,-27241,3,-108,0.08740234375,0.3500299400974234,0.23647043734291176,False,,False,,-27227,,9986,34,1,0,False,3,,
703.178,2.4708897549999165,-0.003662109375,1.010009765625,-0.02392578125,-0.2748091603053435,0.12213740458015267,2.4122137404580153,-27242,-3,-56,0.13134765625,0.18361629768641782,0.12260124611955522,False,,False,,-27260,,10018,34,1,1,False,3,,
703.183,2.4758918339998672,-0.012939453125,1.00341796875,-0.029052734375,-0.183206106870229,-0.030534351145038167,2.381679389312977,-27238,16,0,0.13134765625,0.32690705198396597,-0.0,False,,False,,-27260,,10022,34,1,0,False,3,,
703.188,2.4808939299998656,0.00390625,0.999755859375,-0.0263671875,-0.0916030534351145,0.0916030534351145,2.2900763358778624,-27238,0,-49,0.08740234375,0.3925452223200765,0.10728751323891365,False,,False,,-27227,,9989,34,1,0,False,3,,
703.193,2.485895896999864,0.0068359375,1.003662109375,-0.0244140625,-0.0916030534351145,-0.061068702290076333,2.5343511450381677,-27241,-15,-103,0.13134765625,0.22659389186470977,0.2254987205413248,False,,False,,-27260,,10019,34,1,0,False,3,,
703.198,2.490898419999894,-0.001953125,1.0029296875,-0.02392578125,0.15267175572519084,0.12213740458015267,2.3206106870229006,-27238,15,-45,0.13134765625,0.27847163412907705,0.09851885848892832,False,,False,,-27260,,10022,34,1,0,False,3,,
703.203,2.4959003309998025,0.004150390625,1.005859375,-0.027099609375,-0.183206106870229,-0.030534351145038167,2.351145038167939,-27236,9,-53,0.13134765625,0.4658868685657336,0.11603332222029335,False,,False,,-27260,,10024,34,1,0,False,3,,
